time,timestamp,acce_x,acce_y,acce_z,gyro_x,gyro_y,gyro_z,magX,magY,magZ,roll,pitch,yaw,gt_px,gt_py,dvl_vx,dvl_vy,dvl_vz,depth
2025-07-30 17:29:33.127721,1753867773.127721,-0.8435710072517395,-0.324344128370285,9.708023071289062,-0.0159439630806446,-0.0025082563515752,0.0389694832265377,0.3895535767078399,0.169768214225769,0.60230553150177,0.5238060179945185,-8.061977868382249,155.79652987593326,0.0,0.0,0.059,-0.036,0.011,0.51
2025-07-30 17:29:33.136990,1753867773.13699,-0.831053614616394,-0.3273170590400696,9.70966911315918,-0.0136548792943358,-0.0033806550782173,0.0379533320665359,0.3893025517463684,0.1690883934497833,0.6028606295585632,0.5293822993567228,-8.068085223873002,155.81697624031008,0.000487232076174,0.0007001127578708,0.059,-0.036,0.011,0.51
2025-07-30 17:29:33.147571,1753867773.147571,-0.8407002091407776,-0.3189717531204223,9.715500831604004,-0.0141415381804108,-0.0023524961434304,0.0356700420379638,0.389018565416336,0.1690472811460495,0.6031754612922668,0.5357478977016215,-8.075057069351814,155.8403167668693,0.0010434313595705,0.0014993257679876,0.059,-0.036,0.011,0.51
2025-07-30 17:29:33.157434,1753867773.157434,-0.8642537593841553,-0.3015276193618774,9.730216979980469,-0.0152933606877923,-0.00505908485502,0.0358340106904506,0.3893254995346069,0.1693288683891296,0.6035163998603821,0.5416814730132881,-8.081555746768833,155.86207320902122,0.0015618822824083,0.0022442974625011,0.059,-0.036,0.011,0.51
2025-07-30 17:29:33.167961,1753867773.167961,-0.8498069643974304,-0.3242218792438507,9.716150283813477,-0.0113380877301096,-0.0023108278401196,0.03908122330904,0.3890199363231659,0.1684716790914535,0.6027950644493103,0.548014511853358,-8.08849193183927,155.885294350733,0.0021152366528411,0.0030394225647023,0.059,-0.036,0.011,0.51
2025-07-30 17:29:33.177355,1753867773.177355,-0.8525028824806213,-0.3142204582691192,9.725717544555664,-0.0167026091367006,-0.0038218058180063,0.0352856591343879,0.388743132352829,0.1687025725841522,0.6034551858901978,0.5536660960350999,-8.094681761842786,155.9060168254398,0.0026090483735348,0.0037489897351534,0.059,-0.036,0.011,0.51
2025-07-30 17:29:33.187105,1753867773.187105,-0.8457407355308533,-0.3082956671714782,9.725069999694824,-0.0139532899484038,-0.0016165256965905,0.0380472019314765,0.3881191909313202,0.1690185517072677,0.603188693523407,0.5595316836582698,-8.101105976556857,155.92752397940808,0.0031215588173206,0.0044854254457373,0.059,-0.036,0.011,0.51
2025-07-30 17:29:33.197501,1753867773.197501,-0.8348385691642761,-0.3197238147258758,9.722257614135742,-0.0157802700996398,-0.0039306436665356,0.039521612226963,0.3875511884689331,0.1689363121986389,0.6038182973861694,0.565785977264195,-8.10795591685109,155.9504563886034,0.0036680327594842,0.0052706639336403,0.059,-0.036,0.011,0.51
2025-07-30 17:29:33.206989,1753867773.206989,-0.8416208624839783,-0.3242099583148956,9.715112686157228,-0.0132215032353997,-0.0055116657167673,0.0395137444138526,0.3874866366386413,0.1696381270885467,0.6029572486877441,0.5714940744190753,-8.114207642012754,155.97138607753877,0.0041667823467317,0.0059873264156278,0.059,-0.036,0.011,0.51
2025-07-30 17:29:33.217748,1753867773.217748,-0.8376798629760742,-0.3327879607677459,9.71574592590332,-0.0135954450815916,-0.0024839541874825,0.0377491228282451,0.3883458375930786,0.1700335144996643,0.6023582816123962,0.577966674484688,-8.121296679846841,155.99511894372876,0.0047323309916742,0.006799973695811,0.057,-0.044,0.007,0.51
2025-07-30 17:29:33.227069,1753867773.227069,-0.8348478674888611,-0.3187495172023773,9.723950386047363,-0.014565828256309,-0.0044205244630575,0.0369660630822181,0.3878194093704223,0.1690089851617813,0.6031931638717651,0.583574224446243,-8.12743828189718,156.01567995963305,0.005222295186906,0.0075040122859533,0.057,-0.044,0.007,0.51
2025-07-30 17:29:33.237725,1753867773.237725,-0.8314670920372009,-0.3186225593090057,9.715818405151367,-0.0151034519076347,-0.0052192383445799,0.0383064448833465,0.3878121972084045,0.1687369644641876,0.6028477549552917,0.5899850044828641,-8.13445961208365,156.03918615239024,0.0057824422570143,0.0083088979436182,0.057,-0.044,0.007,0.51
2025-07-30 17:29:33.247526,1753867773.247526,-0.8243775963783264,-0.3314108550548553,9.69809913635254,-0.0146812573075294,-0.00511982338503,0.0361463539302349,0.3877806365489959,0.1688000559806823,0.6022270321846008,0.595881286969617,-8.140917444980063,156.06080585418832,0.0062976346892329,0.0090491874528539,0.057,-0.044,0.007,0.51
2025-07-30 17:29:33.257452,1753867773.257452,-0.8194274306297302,-0.3259174227714538,9.70557975769043,-0.0148162581026554,-0.0061748987063765,0.0348705910146236,0.3869100213050842,0.1698594391345977,0.6036218404769897,0.6018528722759073,-8.147457752389242,156.0827016663163,0.0068194067659712,0.0097989313746699,0.057,-0.044,0.007,0.51
2025-07-30 17:29:33.267229,1753867773.267229,-0.8290923833847046,-0.3128114938735962,9.720244407653809,-0.0162307824939489,-0.0073720142245292,0.0332213565707206,0.3863104581832886,0.1698403060436248,0.6036307215690613,0.6077348113684625,-8.153899875854654,156.1042687756705,0.007333345932567,0.0105374200434141,0.057,-0.044,0.007,0.51
2025-07-30 17:29:33.277887,1753867773.277887,-0.8326472043991089,-0.313461571931839,9.712112426757812,-0.0142843946814537,-0.0079642040655016,0.0369663909077644,0.3875254094600677,0.1698470413684845,0.6039233803749084,0.6141467388766195,-8.1609224627956,156.12777917582324,0.0078935932639251,0.0113424497683183,0.057,-0.044,0.007,0.51
2025-07-30 17:29:33.287208,1753867773.287208,-0.8365293741226196,-0.3052563369274139,9.7193021774292,-0.0146002611145377,-0.0062246257439255,0.0385900065302848,0.3878653347492218,0.1694899499416351,0.6045045852661133,0.6197542888381745,-8.167064064845942,156.14834019172753,0.0083835574591568,0.0120464883584606,0.057,-0.044,0.007,0.51
2025-07-30 17:29:33.296882,1753867773.296882,-0.8347499370574951,-0.3075587153434753,9.710488319396973,-0.0157249774783849,-0.0044211805798113,0.0362609550356864,0.3866260349750519,0.1698183268308639,0.6039366126060486,0.6255741210338541,-8.173438166475115,156.1696795758001,0.0088920699856059,0.0127771793878768,0.057,-0.044,0.007,0.51
2025-07-30 17:29:33.307425,1753867773.307425,-0.8413136005401611,-0.3079685270786285,9.717915534973145,-0.0136903971433639,-0.0083109615370631,0.0351990573108196,0.3856779634952545,0.1704598665237426,0.6033992171287537,0.6319169133819785,-8.18038503395863,156.1929364803737,0.0094462765766621,0.0135735290616121,0.057,-0.044,0.007,0.51
2025-07-30 17:29:33.317270,1753867773.31727,-0.8383163213729858,-0.309523731470108,9.713184356689451,-0.0181052386760711,-0.0049487515352666,0.0354170873761177,0.3860738277435303,0.1697045266628265,0.6048765182495117,0.637839731147997,-8.1868719293024,156.21465347819273,0.0099637875502829,0.014317150125757,0.057,-0.044,0.007,0.51
2025-07-30 17:29:33.326804,1753867773.326804,-0.8339803814888,-0.3103359639644623,9.717557907104492,-0.0165282133966684,-0.0073641808703541,0.0354612991213798,0.3860909938812256,0.1690973788499832,0.6048064827919006,0.6435753676197367,-8.193153816571591,156.23568414462022,0.0104649434075262,0.0150372702214882,0.057,-0.044,0.007,0.51
2025-07-30 17:29:33.337152,1753867773.337152,-0.840852677822113,-0.3131932616233825,9.722295761108398,-0.0136070949956774,-0.0062432051636278,0.0337961614131927,0.386326253414154,0.1698087453842163,0.6039410829544067,0.6498008310033246,-8.199972180909507,156.25851084300348,0.011008898285788,0.0158188890200033,0.057,-0.044,0.007,0.51
2025-07-30 17:29:33.346958,1753867773.346958,-0.8256685137748718,-0.3125666081905365,9.72327709197998,-0.014463915489614,-0.0080148670822381,0.0358175262808799,0.3863736093044281,0.169714093208313,0.6048721075057983,0.6557001256028591,-8.206433312786434,156.28014158921474,0.0115243539037874,0.0165595567057422,0.057,-0.044,0.007,0.51
2025-07-30 17:29:33.357341,1753867773.357341,-0.8248327374458313,-0.3088366985321045,9.731099128723145,-0.016484897583723,-0.0065768915228545,0.0350194871425628,0.3848832547664642,0.1693626642227172,0.6048591732978821,0.6619466737759174,-8.213274769987926,156.3030455984904,0.0120701510825146,0.0173438227397797,0.049,-0.053,0.0,0.51
2025-07-30 17:29:33.367686,1753867773.367686,-0.8311178684234619,-0.3015863597393036,9.734198570251465,-0.0151764284819364,-0.0090252803638577,0.0344175957143306,0.3836367428302765,0.1694190353155136,0.6039458513259888,0.6681702725182598,-8.220091092099812,156.32586545985598,0.0126139430362454,0.0181252074290309,0.049,-0.053,0.0,0.51
2025-07-30 17:29:33.377422,1753867773.377422,-0.8385478258132935,-0.3096454441547394,9.717900276184082,-0.0162736568599939,-0.0094042150303721,0.0358558520674705,0.3839351534843445,0.170004203915596,0.6043217778205872,0.6740275409727952,-8.226506195343902,156.34734211020688,0.01312572658597,0.0188605986521297,0.049,-0.053,0.0,0.51
2025-07-30 17:29:33.387353,1753867773.387353,-0.8226315379142761,-0.2946966290473938,9.731189727783203,-0.0168159939348697,-0.0070420536212623,0.0386457554996013,0.3833297491073608,0.169137418270111,0.6036049127578735,0.680001994957925,-8.23304964463928,156.36924844082364,0.0136477493158329,0.019610702742044,0.049,-0.053,0.0,0.51
2025-07-30 17:29:33.397061,1753867773.397061,-0.8230659365653992,-0.2885181307792663,9.724786758422852,-0.0145531864836812,-0.0095910672098398,0.0363860614597797,0.3836037814617157,0.1700577437877655,0.6037055253982544,0.6858424816412492,-8.239446367849098,156.3906635580153,0.0141580665447788,0.0203439869817678,0.049,-0.053,0.0,0.51
2025-07-30 17:29:33.407794,1753867773.407794,-0.8331802487373352,-0.2854453027248382,9.733314514160156,-0.0144784916192293,-0.0052506332285702,0.0343338288366794,0.3848344981670379,0.1700329184532165,0.6043084859848022,0.6922994474071866,-8.246518282403391,156.41433909844153,0.0147222491301925,0.0211546713458153,0.049,-0.053,0.0,0.51
2025-07-30 17:29:33.417539,1753867773.417539,-0.8334934711456299,-0.3032178580760956,9.734539985656738,-0.0157090313732624,-0.0062021100893616,0.0364820696413517,0.3851270973682403,0.1697704643011093,0.603958785533905,0.698162022917575,-8.25293919813695,156.43583520799663,0.0152344963881975,0.0218907288798961,0.049,-0.053,0.0,0.51
2025-07-30 17:29:33.427232,1753867773.427232,-0.8324333429336548,-0.2943151593208313,9.73289394378662,-0.0151111939921975,-0.0091470777988433,0.0348117500543594,0.3829898238182068,0.1694945394992828,0.6030236482620239,0.7039934732625547,-8.259326024405237,156.45721719194867,0.0157440240598011,0.0226228785901103,0.049,-0.053,0.0,0.51
2025-07-30 17:29:33.437849,1753867773.437849,-0.8275167346000671,-0.2915733158588409,9.73629093170166,-0.0163614861667156,-0.0058971387334167,0.0349083915352821,0.3827617466449737,0.1690551787614822,0.6042344570159912,0.7103807301326918,-8.266321591124859,156.48063713309804,0.016302115774288,0.0234248108693692,0.049,-0.053,0.0,0.51
2025-07-30 17:29:33.446729,1753867773.446729,-0.828883707523346,-0.2901203334331512,9.741045951843262,-0.0125180650502443,-0.0084368819370865,0.0393718071281909,0.3840168714523315,0.1686952412128448,0.6051127910614014,0.715722927301591,-8.272172568701658,156.500225188792,0.016768894555498,0.0240955339104192,0.049,-0.053,0.0,0.51
2025-07-30 17:29:33.457313,1753867773.457313,-0.8383933305740356,-0.2878741919994354,9.75227165222168,-0.0136515302583575,-0.005507284309715,0.0361923947930336,0.3843310177326202,0.169248878955841,0.60579913854599,0.7220903902877354,-8.279146456406497,156.52357255236893,0.0173252567634255,0.0248949810297999,0.049,-0.053,0.0,0.51
2025-07-30 17:29:33.467615,1753867773.467615,-0.8299127221107483,-0.286302775144577,9.743440628051758,-0.0116343908011913,-0.0088426945731043,0.0344232060015201,0.3836425542831421,0.1702666580677032,0.6046715974807739,0.72828802748658,-8.285934344448272,156.54629722141124,0.017866780306379,0.0256731061977615,0.049,-0.053,0.0,0.51
2025-07-30 17:29:33.476942,1753867773.476942,-0.8193423748016357,-0.2710428237915039,9.755032539367676,-0.0116925416514277,-0.0089565329253673,0.0371344052255153,0.382483571767807,0.169861689209938,0.60527503490448,0.7338993067306263,-8.292080030950672,156.56687191135092,0.0183570703506727,0.0263776130064315,0.049,-0.053,0.0,0.51
2025-07-30 17:29:33.487205,1753867773.487205,-0.8188239336013794,-0.2833800017833709,9.749865531921388,-0.0100977439433336,-0.0099005671218037,0.0374123938381671,0.3822469115257263,0.1697259247303009,0.6065208911895752,0.7400735641969288,-8.29884231261991,156.58951085470986,0.018896551070661,0.027152802804392,0.049,-0.053,0.0,0.51
2025-07-30 17:29:33.497777,1753867773.497777,-0.8577015399932861,-0.254844605922699,9.768428802490234,-0.0125988125801086,-0.0085327550768852,0.0349760614335536,0.3833815455436706,0.1704660058021545,0.6056421399116516,0.7464337120520323,-8.30580818851494,156.61283139614042,0.0194522741131208,0.027951331495122,0.049,-0.053,0.0,0.51
2025-07-30 17:29:33.507588,1753867773.507588,-0.8288378119468689,-0.2661189436912536,9.765908241271973,-0.0136939575895667,-0.0115895606577396,0.0363382250070571,0.3830515742301941,0.1699439287185669,0.6046454310417175,0.7523360187643483,-8.312272619372377,156.63447318676486,0.019967992916901,0.0286923773573642,0.049,-0.053,0.0,0.51
2025-07-30 17:29:33.517252,1753867773.517252,-0.8343486189842224,-0.2728284001350403,9.766891479492188,-0.0095095979049801,-0.01002873852849,0.0368259139358997,0.3822167217731476,0.1692134290933609,0.6055197715759277,0.7581499701684069,-8.31864028013484,156.65579100793548,0.0204759916044448,0.0294223300421788,0.049,-0.053,0.0,0.51
2025-07-30 17:29:33.526607,1753867773.526607,-0.824693500995636,-0.2634561955928802,9.759846687316896,-0.0110888062044978,-0.0073649371042847,0.0365325063467025,0.3822568655014038,0.1688467413187027,0.6061054468154907,0.7637780311836645,-8.324804346671511,156.6764272310344,0.0209677479695171,0.0301289438342239,0.049,-0.053,0.0,0.51
2025-07-30 17:29:33.537361,1753867773.537361,-0.8298686742782593,-0.2542003989219665,9.773794174194336,-0.0098822927102446,-0.0083243856206536,0.0371736288070678,0.3822311162948608,0.1697574704885482,0.6062105298042297,0.7702476191364958,-8.331890085525087,156.7001490528112,0.0215330334286789,0.0309412129379039,0.049,-0.053,0.0,0.51
2025-07-30 17:29:33.547210,1753867773.54721,-0.8424717783927917,-0.250776469707489,9.777215003967283,-0.0084522552788257,-0.0100854812189936,0.0384312234818935,0.3815914094448089,0.1701050102710724,0.6056336760520935,0.7761728752795278,-8.33837965147213,156.72187499134571,0.0220507574574555,0.0316851401449324,0.049,-0.053,0.0,0.51
2025-07-30 17:29:33.557676,1753867773.557676,-0.836304783821106,-0.2574528157711029,9.77376937866211,-0.0057833492755889,-0.0115505689755082,0.0361390858888626,0.3816659152507782,0.1685240119695663,0.6060792803764343,0.782469338464394,-8.345275777493507,156.7449620223258,0.0226009160005501,0.0324756731038802,0.037,-0.063,-0.008,0.51
2025-07-30 17:29:33.567189,1753867773.567189,-0.8418629169464111,-0.2615825235843658,9.776808738708496,-0.0042629917152225,-0.0094426330178976,0.0374574735760688,0.3819440901279449,0.1677175015211105,0.6050387024879456,0.7881923527492397,-8.351543840463414,156.76594640740274,0.0231009689840454,0.0331942084599789,0.037,-0.063,-0.008,0.51
2025-07-30 17:29:33.577786,1753867773.577786,-0.8286207914352417,-0.2350012063980102,9.779006958007812,-0.0033740969374775,-0.0059396289288997,0.0395454354584217,0.3828091025352478,0.1689605265855789,0.6051655411720276,0.7945675611682507,-8.358526211260996,156.7893221708993,0.0236580079554091,0.033994628033225,0.037,-0.063,-0.008,0.51
2025-07-30 17:29:33.587579,1753867773.587579,-0.8427346348762512,-0.2511072754859924,9.788731575012209,-0.0021257295738905,-0.0081996470689773,0.0354171022772789,0.3819083571434021,0.1695074141025543,0.605559229850769,0.8004591103349183,-8.364978860045182,156.8109245171909,0.0241727868099722,0.0347343232650985,0.037,-0.063,-0.008,0.51
2025-07-30 17:29:33.597391,1753867773.597391,-0.8235918283462524,-0.2423680871725082,9.791125297546388,-0.0021993773989379,-0.0094986045733094,0.0398587808012962,0.381340354681015,0.1694251745939254,0.6061887741088867,0.8063619907830022,-8.371443919279859,156.83256841151305,0.0246885557443773,0.0354754411609603,0.037,-0.063,-0.008,0.51
2025-07-30 17:29:33.607648,1753867773.607648,-0.8267567753791809,-0.2405036985874176,9.79011344909668,0.0011132372310385,-0.0098155364394187,0.0425282642245292,0.3810491561889648,0.1691120266914367,0.6061581969261169,0.8125326624007553,-8.378202273591347,156.85519420676104,0.02522772314796,0.0362501807487979,0.037,-0.063,-0.008,0.51
2025-07-30 17:29:33.617396,1753867773.617396,-0.8346878886222839,-0.2405431866645813,9.800297737121582,0.0037175577599555,-0.0103132436051964,0.0422999709844589,0.3809846341609955,0.1698138266801834,0.6052971482276917,0.8183972459863315,-8.384625388645247,156.87669767925829,0.0257401458631522,0.0369864904005474,0.037,-0.063,-0.008,0.51
2025-07-30 17:29:33.627145,1753867773.627145,-0.832772433757782,-0.2239687144756317,9.802437782287598,0.0072653465904295,-0.0102826748043298,0.0431860908865928,0.3809602856636047,0.170148953795433,0.6050217747688293,0.8242622598737335,-8.391048974982079,156.8982027295288,0.0262526061763131,0.0377228540775117,0.037,-0.063,-0.008,0.51
2025-07-30 17:29:33.636603,1753867773.636603,-0.8274020552635193,-0.2381893992424011,9.81315803527832,0.006733532063663,-0.0101367393508553,0.0449530780315399,0.381340354681015,0.1694251745939254,0.6061887741088867,0.8299522843519248,-8.397280906260681,156.91906615198496,0.0267497766488759,0.03843724750048,0.037,-0.063,-0.008,0.51
2025-07-30 17:29:33.647228,1753867773.647228,-0.8323395848274231,-0.2413114607334137,9.789106369018556,0.0066179558634757,-0.0107039650902152,0.0418965481221675,0.3810907304286957,0.1681697517633438,0.6063634753227234,0.836344274542147,-8.404281657092534,156.9425034486408,0.0273082819410183,0.0392397740571011,0.037,-0.063,-0.008,0.51
2025-07-30 17:29:33.656878,1753867773.656878,-0.8294751048088074,-0.2282751947641372,9.809155464172363,0.0098708411678671,-0.0124671338126063,0.0429268851876258,0.3816401362419128,0.1694347411394119,0.6061843633651733,0.842149763343629,-8.410640049290706,156.96379024026956,0.0278155412018446,0.0399686642460257,0.037,-0.063,-0.008,0.51
2025-07-30 17:29:33.667283,1753867773.667283,-0.8447529077529907,-0.2161984592676162,9.816028594970703,0.0114402770996093,-0.0140756098553538,0.0440720804035663,0.3816473484039306,0.1697067767381668,0.606529712677002,0.8484095074393493,-8.41749595916872,156.98674263459353,0.0283624913849449,0.0407545870533154,0.037,-0.063,-0.008,0.51
2025-07-30 17:29:33.677317,1753867773.677317,-0.8645825982093811,-0.2021916955709457,9.833783149719238,0.0146639887243509,-0.0118679860606789,0.0477146059274673,0.3802057206630707,0.1686850786209106,0.6070675253868103,0.8544459248874129,-8.424107273206026,157.0088761645675,0.0288899282222982,0.0415124707741528,0.037,-0.063,-0.008,0.51
2025-07-30 17:29:33.686775,1753867773.686775,-0.849777102470398,-0.2008586674928665,9.824610710144045,0.0145050212740898,-0.0131232412531971,0.0470721237361431,0.380489706993103,0.1687262058258056,0.6067527532577515,0.8601359493656041,-8.430339204484628,157.02973958702367,0.029387098694861,0.0422268641971211,0.037,-0.063,-0.008,0.51
2025-07-30 17:29:33.696762,1753867773.696762,-0.8555309176445007,-0.2161664366722107,9.818408966064451,0.019495528191328,-0.0148696824908256,0.048647154122591,0.3810549676418304,0.1699596643447876,0.6068839430809021,0.8661442537610403,-8.436919728037173,157.0517700358078,0.0299120791315937,0.0429812182705952,0.037,-0.063,-0.008,0.51
2025-07-30 17:29:33.707153,1753867773.707153,-0.8511736989021301,-0.2074573636054992,9.823890686035156,0.0202384386211633,-0.0132345110177993,0.0479350313544273,0.3807479739189148,0.1696780622005462,0.6065430045127869,0.872395535254184,-8.443766369350895,157.07469140058993,0.0304582898879764,0.043766078581995,0.037,-0.063,-0.008,0.51
2025-07-30 17:29:33.716871,1753867773.716871,-0.8405904173851013,-0.2109925299882888,9.81198024749756,0.0234779231250286,-0.0152974473312497,0.0512026324868202,0.3813619613647461,0.1702412664890289,0.6072249412536621,0.8782419027291292,-8.450169533427422,157.09612808068354,0.0309691209558277,0.0445001011663203,0.037,-0.063,-0.008,0.51
2025-07-30 17:29:33.727610,1753867773.72761,-0.837307333946228,-0.2127813845872879,9.809270858764648,0.0229508560150861,-0.0128506924957036,0.0516911819577217,0.3810076117515564,0.1700543165206909,0.6059528589248657,0.8847025977775579,-8.457245532433777,157.11981729514517,0.0315336293903033,0.0453112537488956,0.037,-0.063,-0.008,0.51
2025-07-30 17:29:33.737220,1753867773.73722,-0.8317152261734009,-0.2055741101503372,9.812689781188965,0.0238265302032232,-0.0138861751183867,0.0518943220376968,0.380416601896286,0.1697315871715545,0.6059266924858093,0.8904839896767879,-8.463577532787864,157.14101573146834,0.0320387831648833,0.0460371185257946,0.037,-0.063,-0.008,0.51
2025-07-30 17:29:33.747041,1753867773.747041,-0.8431035280227661,-0.1967635303735733,9.82936191558838,0.0280444752424955,-0.0156529992818832,0.0523859709501266,0.3798328340053558,0.1696808934211731,0.6062459349632263,0.8963923206146669,-8.470048561606323,157.16267961091916,0.0325550283402251,0.0467789207410431,0.037,-0.063,-0.008,0.51
2025-07-30 17:29:33.757452,1753867773.757452,-0.8513637781143188,-0.1973007619380951,9.824642181396484,0.0258751269429922,-0.0128409415483474,0.0505468137562274,0.3804080188274383,0.1700351536273956,0.6059617400169373,0.9026556505589364,-8.476908398842086,157.18564515335407,0.033102291839731,0.0475652937584557,0.02,-0.069,-0.014,0.51
2025-07-30 17:29:33.766924,1753867773.766924,-0.8489211797714233,-0.1845409274101257,9.825393676757812,0.0304222572594881,-0.0137100778520107,0.0512576550245285,0.3803850412368774,0.1697946786880493,0.6053059697151184,0.9209701068697042,-8.481389058436784,157.21651462099263,0.0336692762102027,0.0484366146614378,0.02,-0.069,-0.014,0.51
2025-07-30 17:29:33.777186,1753867773.777186,-0.8485914468765259,-0.1981719881296157,9.829023361206056,0.0340975634753704,-0.0131282126531004,0.0544276759028434,0.3798328340053558,0.1696808934211731,0.6062459349632263,0.9524265320697136,-8.484622896675727,157.259142486822,0.0343471574383412,0.0495241225814925,0.02,-0.069,-0.014,0.51
2025-07-30 17:29:33.787203,1753867773.787203,-0.8466274738311768,-0.1957863867282867,9.821577072143556,0.035563725978136,-0.0139959845691919,0.0544562637805938,0.3810649514198303,0.1690804809331894,0.6064685583114624,0.983132393897194,-8.487779574190927,157.30075323406467,0.0350088641387788,0.050585682110815,0.02,-0.069,-0.014,0.51
2025-07-30 17:29:33.797843,1753867773.797843,-0.8645022511482239,-0.1802752315998077,9.83424949645996,0.0364391878247261,-0.0143520766869187,0.0547515228390693,0.3816730976104736,0.1687960475683212,0.6064246892929077,1.015747186132704,-8.491132496896409,157.34495084961148,0.0357117080021712,0.0517132369630125,0.02,-0.069,-0.014,0.51
2025-07-30 17:29:33.806735,1753867773.806735,-0.8639155030250549,-0.1933839917182922,9.81553077697754,0.0393515974283218,-0.0140088899061083,0.0560810305178165,0.3804581463336944,0.1687892973423004,0.6061320304870605,1.0430042567674227,-8.493934625769592,157.38188800132312,0.0362990937715279,0.0526555652792236,0.02,-0.069,-0.014,0.51
2025-07-30 17:29:33.817596,1753867773.817596,-0.8604925274848938,-0.1839634180068969,9.835554122924805,0.0418802499771118,-0.0153880976140499,0.0560736916959285,0.3801583647727966,0.1687797307968139,0.6061364412307739,1.0762965292817397,-8.497357195983264,157.42700369761948,0.0370165372329521,0.0538065419018288,0.02,-0.069,-0.014,0.51
2025-07-30 17:29:33.827805,1753867773.827805,-0.8680101633071899,-0.1943818926811218,9.828032493591309,0.0432108640670776,-0.0192425940185785,0.0604996569454669,0.3795574307441711,0.1693361848592758,0.606525719165802,1.1075907100136857,-8.500574354883677,157.46941169945055,0.0376909221172253,0.0548884407247633,0.02,-0.069,-0.014,0.51
2025-07-30 17:29:33.837303,1753867773.837303,-0.8666571378707886,-0.1857118606567382,9.832173347473145,0.0447152219712734,-0.0136898905038833,0.0555591769516468,0.3804467916488647,0.1702440828084945,0.6069278120994568,1.1367048220598908,-8.503567394564099,157.50886540260197,0.0383183268494718,0.055894970463419,0.02,-0.069,-0.014,0.51
2025-07-30 17:29:33.846872,1753867773.846872,-0.8976827263832092,-0.1894059032201767,9.820350646972656,0.048792365938425,-0.0150467827916145,0.0582709982991218,0.3807393908500671,0.1699816435575485,0.6065780520439148,1.1660374525563266,-8.506582898759032,157.5486152288862,0.0389504406214286,0.0569090547968449,0.02,-0.069,-0.014,0.51
2025-07-30 17:29:33.857388,1753867773.857388,-0.8680583238601685,-0.2223863005638122,9.860689163208008,0.0485785081982612,-0.0146233476698398,0.0582066066563129,0.3804409801959991,0.1693964451551437,0.6062020659446716,1.1982722127044798,-8.509896752743629,157.59229784768027,0.0396450948505421,0.0580234712233551,0.02,-0.069,-0.014,0.51
2025-07-30 17:29:33.867596,1753867773.867596,-0.8474044799804688,-0.2553247511386871,9.841120719909668,0.0523313134908676,-0.008541845716536,0.0700228586792945,0.3807277679443359,0.168286383152008,0.6051264405250549,1.2295627392817396,-8.513113535983264,157.6347008976195,0.0403194009883319,0.0591052437152733,0.02,-0.069,-0.014,0.51
2025-07-30 17:29:33.877168,1753867773.877168,-0.8358712196350098,-0.2342207878828048,9.955082893371582,0.0595006681978702,-0.0091784503310918,0.0724883154034614,0.3801755607128143,0.1681725829839706,0.6060664057731628,1.2589041397494218,-8.516129941764062,157.67446260844417,0.040951703751849,0.0601196312431381,0.02,-0.069,-0.014,0.51
2025-07-30 17:29:33.887793,1753867773.887793,-0.9894586801528932,-0.1476300507783889,9.605621337890623,0.0501776747405529,-0.0348144024610519,0.0817236751317977,0.3796477019786834,0.1677236557006836,0.6072816848754883,1.2914736204668242,-8.519478206275899,157.71859882053204,0.0416535711588466,0.0612456195907344,0.02,-0.069,-0.014,0.51
2025-07-30 17:29:33.897216,1753867773.897216,-0.7500174641609192,-0.2456713169813156,9.735048294067385,0.047405082732439,-0.0210659820586442,0.0876609086990356,0.3813489377498626,0.1691216081380844,0.6061537265777588,1.320358251598741,-8.522447654459482,157.75774154487505,0.0422760306119323,0.0622442157415714,0.02,-0.069,-0.014,0.51
2025-07-30 17:29:33.906849,1753867773.906849,-0.9402392506599426,-0.2814514935016632,9.825484275817873,0.072072222828865,-0.0094529716297984,0.0934479907155036,0.3810234069824219,0.1700227558612823,0.6062632203102112,1.349886013955416,-8.525483218939943,157.79775580218427,0.0429123494461054,0.0632650461512636,0.02,-0.069,-0.014,0.51
2025-07-30 17:29:33.917070,1753867773.91707,-0.831527829170227,-0.085102304816246,9.947298049926758,0.0584340319037437,-0.014581642113626,0.0964959412813186,0.3804711699485779,0.1699089705944061,0.6072031855583191,1.3812167362342227,-8.528704134448132,157.84021332293386,0.0435875217952132,0.0643482082843602,0.02,-0.069,-0.014,0.51
2025-07-30 17:29:33.926683,1753867773.926683,-0.9199042916297911,-0.2363041341304779,9.920317649841309,0.0512884147465229,-0.0061873747035861,0.0977704375982284,0.3801484107971191,0.1696589142084121,0.6065518856048584,1.4106838396231076,-8.531733462959684,157.8801453788383,0.044222533437761,0.0653669415991831,0.02,-0.069,-0.014,0.51
2025-07-30 17:29:33.937310,1753867773.93731,-0.829444169998169,-0.3012331426143646,9.678459167480469,0.068252645432949,-0.0309136267751455,0.1042978167533874,0.3804725408554077,0.169333353638649,0.6068227887153625,1.4432591669880075,-8.535082328528766,157.92428951395308,0.0449245268391321,0.0664931320764053,0.02,-0.069,-0.014,0.51
2025-07-30 17:29:33.947072,1753867773.947072,-0.9268357157707214,-0.1990076154470443,9.816930770874023,0.0734206140041351,-0.0131072448566555,0.1043667718768119,0.3795186579227447,0.169127270579338,0.6055595874786377,1.4731830397126575,-8.538158614637533,157.9648405563392,0.0455693817921113,0.0675276567682561,0.02,-0.069,-0.014,0.51
2025-07-30 17:29:33.956831,1753867773.956831,-0.8940386772155762,-0.1158603355288505,9.836048126220703,0.0533468686044216,-0.0262830182909965,0.1107964888215065,0.3800852596759796,0.1697851121425628,0.6053104400634766,1.503097411635124,-8.541233924028278,158.00537872380644,0.0462140320042335,0.0685618529994647,0.006,-0.071,-0.014,0.51
2025-07-30 17:29:33.967488,1753867773.967488,-0.8503665924072266,-0.3150103688240051,9.77609634399414,0.0588962770998477,-0.0022613205946981,0.1134660392999649,0.3803994357585907,0.1703387200832367,0.6059967279434204,1.5461882155590858,-8.54068347412638,158.10485913220597,0.0472643629272885,0.0693299675247341,0.006,-0.071,-0.014,0.51
2025-07-30 17:29:33.977169,1753867773.977169,-0.9342385530471802,-0.3218071162700653,9.709036827087402,0.0732907876372337,-0.0128026390448212,0.1163061559200286,0.3803750574588775,0.1706738620996475,0.6057214140892029,1.593613315411326,-8.537078056858682,158.23909157860248,0.0484936583822896,0.0697407227711818,0.006,-0.071,-0.014,0.51
2025-07-30 17:29:33.987000,1753867773.987,-0.8693867325782776,-0.1703593134880066,9.925677299499512,0.0711820870637893,-0.0247537735849618,0.1191348806023597,0.3809616565704345,0.1695733368396759,0.6046413779258728,1.641773063405594,-8.53341678914248,158.3754033799746,0.0497419964882252,0.0701578409052054,0.006,-0.071,-0.014,0.51
2025-07-30 17:29:33.997627,1753867773.997627,-0.9006925821304321,-0.1504928171634674,9.97126579284668,0.0591244883835315,-0.0266642048954963,0.1195073351264,0.3819227516651153,0.1700514703989029,0.606249988079071,1.6938326367515837,-8.529459043449261,158.5227532835144,0.0510914210988831,0.0706087359575367,0.006,-0.071,-0.014,0.51
2025-07-30 17:29:34.007422,1753867774.007422,-0.879456639289856,-0.3097973167896271,9.67751121520996,0.061046365648508,-0.0249915793538093,0.1222500503063201,0.3818811774253845,0.1709937453269958,0.6060446500778198,1.7418160224732824,-8.525811183392397,158.65856590745997,0.0523351877576151,0.0710243265939069,0.006,-0.071,-0.014,0.51
2025-07-30 17:29:34.017530,1753867774.01753,-0.9229365587234496,-0.2698107361793518,9.685088157653809,0.0679227635264396,-0.0082716969773173,0.1267206072807312,0.3809286952018738,0.170212060213089,0.6044010519981384,1.7913329423928877,-8.522046738854007,158.7987190609491,0.0536187048148796,0.0714531993787461,0.006,-0.071,-0.014,0.51
2025-07-30 17:29:34.027642,1753867774.027642,-0.93372642993927,-0.2525725364685058,9.901911735534668,0.0754374861717224,-0.0060018780641257,0.1327011436223983,0.3800379037857055,0.1698797643184662,0.6043793559074402,1.8408697176676827,-8.518280784844032,158.93892841322142,0.0549027365383856,0.0718822441335198,0.006,-0.071,-0.014,0.51
2025-07-30 17:29:34.037503,1753867774.037503,-1.0248461961746216,-0.2497442960739135,9.912276268005373,0.0654836073517799,-0.0124527029693126,0.1403776556253433,0.3791529536247253,0.170395091176033,0.6050833463668823,1.889176628882771,-8.514608329279643,159.0756567467508,0.0561548892294051,0.0723006368682342,0.006,-0.071,-0.014,0.51
2025-07-30 17:29:34.047504,1753867774.047504,-1.079756736755371,-0.4480074644088745,9.717854499816896,0.0747350081801414,-0.0170474499464035,0.1510751545429229,0.3785619735717773,0.1700723767280578,0.6050571799278259,1.9381691338329472,-8.51088375254948,159.21432559120336,0.0574248130429978,0.0727249676236275,0.006,-0.071,-0.014,0.51
2025-07-30 17:29:34.056853,1753867774.056853,-1.262604832649231,-0.405537486076355,9.788545608520508,0.0826726630330085,-0.0295916851609945,0.1635944545269012,0.3792102634906769,0.1694212704896927,0.605599045753479,1.9839684304837517,-8.507401934366541,159.3439563490053,0.0586119664151677,0.0731216415672047,0.006,-0.071,-0.014,0.51
2025-07-30 17:29:34.067440,1753867774.06744,-1.1565734148025513,-0.445596694946289,9.856199264526367,0.0656148344278335,-0.0237107295542955,0.1844033151865005,0.3788875043392181,0.1691712141036987,0.6049477458000183,2.035831786201981,-8.50345910580424,159.4907508763354,0.0599563049123805,0.0735708371519482,0.006,-0.071,-0.014,0.51
2025-07-30 17:29:34.077650,1753867774.07765,-1.1184767484664917,-0.6740134954452515,9.698079109191896,0.0537544824182987,-0.0291546247899532,0.2001167982816696,0.3780341148376465,0.1696234494447708,0.6062724590301514,2.0858485938875453,-8.499656658098981,159.63231891683498,0.0612527794491362,0.074004039532785,0.006,-0.071,-0.014,0.51
2025-07-30 17:29:34.087470,1753867774.08747,-0.962787389755249,-0.7686346769332886,9.632424354553224,0.0782263949513435,-0.0163610912859439,0.2157042026519775,0.3774602711200714,0.1686935722827911,0.6061762571334839,2.133954615626594,-8.495999474835294,159.7684786509116,0.0624997249287714,0.0744206923363976,0.006,-0.071,-0.014,0.51
2025-07-30 17:29:34.097639,1753867774.097639,-1.189981460571289,-0.625711977481842,9.872285842895508,0.0770232677459716,-0.0140369907021522,0.2472692281007766,0.3771045506000519,0.1690822392702102,0.6052846312522888,2.1837705338361184,-8.492212299430738,159.9094780919584,0.0637909922541428,0.0748521547861325,0.006,-0.071,-0.014,0.51
2025-07-30 17:29:34.107199,1753867774.107199,-1.1606162786483765,-0.4482468664646148,9.983227729797363,0.043035302311182,-0.0251629762351512,0.2816869616508484,0.3752886652946472,0.1696319580078125,0.6053812503814697,2.2306023089568,-8.488651988725582,160.04203118648277,0.0650049082708694,0.0752577711663028,0.006,-0.071,-0.014,0.51
2025-07-30 17:29:34.116406,1753867774.116406,-0.9686480164527892,-0.4723070561885834,9.7344331741333,0.0313646271824836,-0.033890563994646,0.3216160535812378,0.3732217252254486,0.1695018410682678,0.6060329675674438,2.2757055002138853,-8.485223090840424,160.1696916810646,0.0661740180501029,0.0756484160462947,0.006,-0.071,-0.014,0.51
2025-07-30 17:29:34.127130,1753867774.12713,-0.4412065744400024,-0.3132379651069641,9.429117202758787,0.0615015737712383,-0.0451639741659164,0.3617486357688904,0.3723625242710113,0.1691064536571502,0.6066319346427917,2.328240434122364,-8.481229206621704,160.31838704958858,0.0675357643760714,0.0761034282611751,0.006,-0.071,-0.014,0.51
2025-07-30 17:29:34.137214,1753867774.137214,-1.0256989002227783,-0.2333787679672241,9.592499732971191,0.0803814604878425,-0.0434781126677989,0.3770716190338135,0.3708865642547607,0.1692990660667419,0.6073098182678223,2.377639389872899,-8.477473730120353,160.45820631618977,0.0688162237103719,0.076531279342286,0.006,-0.071,-0.014,0.51
2025-07-30 17:29:34.147579,1753867774.147579,-0.3472829163074493,-1.0601669549942017,9.348864555358888,0.0889403596520423,-0.0398102924227714,0.4205407500267029,0.3688769340515136,0.1681951284408569,0.6084771752357483,2.4284153729039613,-8.473613567325229,160.60192313369117,0.0701323766622428,0.076971057044147,0.006,-0.071,-0.014,0.51
2025-07-30 17:29:34.157555,1753867774.157555,-0.9118471145629884,-0.8066427707672119,9.692285537719728,0.1304403841495514,-0.041624192148447,0.4613844752311706,0.3691753447055816,0.1687803119421005,0.6088531613349915,2.4772864097988583,-8.469898225009446,160.7402481738234,0.071399151929417,0.0773943357481764,0.006,-0.071,-0.014,0.51
2025-07-30 17:29:34.167542,1753867774.167542,-0.5010306239128113,-0.5617364048957825,10.195023536682127,0.0814828872680664,-0.0171029139310121,0.4811964929103851,0.3694579601287842,0.1693970412015915,0.6089187860488892,2.526210004986905,-8.472262036639657,160.97621677605795,0.0728835000209766,0.0778115214428597,0.006,-0.071,-0.014,0.51
2025-07-30 17:29:34.177364,1753867774.177364,-0.6909429430961609,-0.6087440252304077,10.142547607421877,0.0151305692270398,-0.0237018223851919,0.5277280807495117,0.3688398003578186,0.1705606430768966,0.6093780398368835,2.5743265383845837,-8.479015234266427,161.27926652170785,0.0745007575554728,0.0782170581447184,-0.008,-0.077,-0.01,0.51
2025-07-30 17:29:34.197115,1753867774.197115,-0.4240545332431793,-0.8408766984939575,9.559255599975586,0.0679073929786682,-0.0726835504174232,0.5522566437721252,0.3657674193382263,0.1720459014177322,0.6089767217636108,2.6710816842252294,-8.49259490377147,161.88865419506718,0.0777528203613858,0.0790325317451911,-0.008,-0.077,-0.01,0.51
2025-07-30 17:29:34.215227,1753867774.215227,-0.7894554138183594,-0.4636531770229339,9.769862174987791,0.0594404488801956,-0.0679120942950248,0.6156098246574402,0.3632974028587341,0.17239910364151,0.6078056693077087,2.759808258796714,-8.505047756263469,162.44747595460757,0.080735032734206,0.0797803387852692,-0.008,-0.077,-0.01,0.51
2025-07-30 17:29:34.295354,1753867774.295354,-0.6398942470550537,-0.4750438928604126,9.487893104553224,0.0727163553237915,-0.0517438948154449,0.644852340221405,0.3624268174171448,0.1734584867954254,0.6092004776000977,3.152333447395194,-8.560139010452172,164.91969600385343,0.0939283007008268,0.0830886272079834,-0.008,-0.077,-0.01,0.51
2025-07-30 17:29:34.417296,1753867774.417296,-2.034432888031006,-0.544769823551178,9.123760223388672,0.1546293199062347,-0.0830106884241104,0.5236867070198059,0.3588744401931762,0.1850683391094207,0.6058851480484009,3.509648889691212,-8.559723229502671,168.15562577272027,0.1084833582617767,0.0900026068197349,-0.018,-0.08,-0.006,0.5
2025-07-30 17:29:34.417296,1753867774.417296,-0.8831832408905029,-0.1069831177592277,9.883012771606444,0.0162538811564445,0.0185102634131908,0.3997345268726349,0.3449814021587372,0.1914209723472595,0.6087563037872314,3.509648889691212,-8.559723229502671,168.15562577272027,0.1084833582617767,0.0900026068197349,-0.018,-0.08,-0.006,0.5
2025-07-30 17:29:34.432343,1753867774.432343,-1.036978006362915,-0.286743551492691,9.795984268188477,-0.0367214754223823,-0.0072914906777441,0.3962652385234833,0.3440591096878052,0.1911517679691314,0.6081138253211975,3.518270225686949,-8.547222292459324,168.47713826637622,0.1094632806159516,0.0911334303658059,-0.018,-0.08,-0.006,0.5
2025-07-30 17:29:34.441444,1753867774.441444,-0.9543020129203796,-0.6271465420722961,9.211565971374512,-0.0389815755188465,-0.0467402786016464,0.3887088000774383,0.3433849811553955,0.1927136331796646,0.6076771020889282,3.5234846641079987,-8.53966135683981,168.67159851019412,0.1100559665727199,0.0918173858164433,-0.018,-0.08,-0.006,0.5
2025-07-30 17:29:34.448066,1753867774.448066,-0.8144537806510925,-0.824913501739502,9.595702171325684,0.0239619687199592,-0.0211634654551744,0.3855336606502533,0.3409939110279083,0.1929090619087219,0.6080578565597534,3.527278833319585,-8.534159811549232,168.81309314689227,0.1104872212213954,0.0923150506661093,-0.018,-0.08,-0.006,0.5
2025-07-30 17:29:34.457387,1753867774.457387,-0.9107705354690552,-0.3808403611183166,10.065051078796388,-0.0058352868072688,-0.0019527865806594,0.3809412717819214,0.3398506939411163,0.1924725472927093,0.6089716553688049,3.532619357003723,-8.52641605230044,169.01225544470375,0.1110942383407462,0.0930155441781775,-0.018,-0.08,-0.006,0.5
2025-07-30 17:29:34.466844,1753867774.466844,-0.9158795475959778,-0.6451084613800049,9.663094520568848,-0.0589521713554859,-0.0085130669176578,0.3741804361343384,0.3386171758174896,0.1936485469341278,0.6091294288635254,3.5380378814302484,-8.518559191976548,169.2143265971527,0.1117101212172308,0.0937262687119977,-0.018,-0.08,-0.006,0.5
2025-07-30 17:29:34.477586,1753867774.477586,-0.7416778802871704,-0.8001188039779663,9.40902328491211,-0.0234493259340524,-0.0034532719291746,0.3695493638515472,0.3380148112773895,0.194780632853508,0.60989910364151,3.544192563476261,-8.50963490311725,169.44385102042668,0.1124096775879265,0.0945335518731751,-0.018,-0.08,-0.006,0.5
2025-07-30 17:29:34.491417,1753867774.491417,-0.901681661605835,-0.346098244190216,9.86054229736328,-0.0102403201162815,-0.0329564474523067,0.3642443120479584,0.3368400633335113,0.1944071948528289,0.6101921200752258,3.5521170837330858,-8.498144348883164,169.73937740636717,0.1133103981432573,0.0955729770970807,-0.018,-0.08,-0.006,0.5
2025-07-30 17:29:34.499739,1753867774.499739,-1.0064195394515991,-0.3370712399482727,10.05827522277832,-0.0699210539460182,-0.0439997874200344,0.3599610328674316,0.3344187438488006,0.1940901577472686,0.6095718145370483,3.556885237696376,-8.491230525719613,169.91719451866055,0.1138523583057062,0.0961983953356979,-0.018,-0.08,-0.006,0.5
2025-07-30 17:29:34.507225,1753867774.507225,-0.9584563970565796,-0.7554311752319336,9.376471519470217,-0.0575560852885246,-0.0396758876740932,0.3619619309902191,0.3326200246810913,0.1940327286720276,0.6095983386039734,3.561174458905182,-8.485011155041704,170.07715095782112,0.1143398817877498,0.0967609940256948,-0.018,-0.08,-0.006,0.5
2025-07-30 17:29:34.517446,1753867774.517446,-0.7082375288009644,-0.7580979466438293,9.34042739868164,0.0106281256303191,0.0018760587554425,0.360164612531662,0.3328926861286163,0.1955286115407943,0.6100794076919556,3.567030661753092,-8.476519661014446,170.29554429986433,0.1150055122751924,0.0975291269547744,-0.018,-0.08,-0.006,0.5
2025-07-30 17:29:34.533591,1753867774.533591,-0.9562771916389464,-0.3698815107345581,9.784826278686523,0.0063184080645442,0.0149826975539326,0.3555144369602203,0.3319259881973266,0.1973529160022735,0.6099924445152283,3.576281058026753,-8.463106586579087,170.64051612032478,0.1160569351750792,0.0987424616307361,-0.018,-0.08,-0.006,0.5
2025-07-30 17:29:34.538843,1753867774.538843,-0.8974527716636658,-0.4326212704181671,9.66643238067627,-0.0537342205643653,-0.0183961726725101,0.3484131395816803,0.3307670056819916,0.1969479620456695,0.6105958223342896,3.579290165475639,-8.458743380830722,170.75273372094355,0.1163989577637749,0.0991371533070077,-0.018,-0.08,-0.006,0.5
2025-07-30 17:29:34.547669,1753867774.547669,-0.9190037846565248,-0.7925828695297241,9.33400821685791,-0.0667019560933113,-0.0133366342633962,0.344609797000885,0.3290098309516907,0.1959482580423355,0.6108276844024658,3.5843470997706413,-8.451410826191228,170.9413202180067,0.1169737414123552,0.0998004496191512,-0.018,-0.08,-0.006,0.5
2025-07-30 17:29:34.558378,1753867774.558378,-0.8386949300765991,-0.7106051445007324,9.61749267578125,-0.0417338944971561,-0.0041478471830487,0.3424618542194366,0.3278336226940155,0.1961504220962524,0.611501157283783,3.5904829304988786,-8.442513871742374,171.17014162562404,0.1176711550956876,0.1006052601340909,-0.023,-0.078,-0.003,0.5
2025-07-30 17:29:34.567435,1753867774.567435,-0.8933113217353821,-0.579243004322052,9.83869171142578,-0.0459377244114875,0.0198791418224573,0.3418953120708465,0.3268612027168274,0.1971270740032196,0.6106883883476257,3.574536341189613,-8.43434401129386,171.32448194748557,0.1179020978443997,0.10112304375764,-0.023,-0.078,-0.003,0.5
2025-07-30 17:29:34.579057,1753867774.579057,-0.9614166617393494,-0.5437083840370178,9.623255729675291,-0.0498998425900936,0.0096253426745533,0.3387927412986755,0.3258787095546722,0.1989829242229461,0.610291063785553,3.537579521028275,-8.423356848810183,171.4919529414305,0.1179183710447016,0.1016603549448401,-0.023,-0.078,-0.003,0.5
2025-07-30 17:29:34.590632,1753867774.590632,-0.841423511505127,-0.6085463166236877,9.462714195251465,-0.0391046516597271,0.0024887910112738,0.3348388075828552,0.3241101801395416,0.1994380205869674,0.6113187670707703,3.500772056579648,-8.412414089375151,171.65874712526167,0.1179345784791876,0.102195494665584,-0.023,-0.078,-0.003,0.5
2025-07-30 17:29:34.597311,1753867774.597311,-0.8435112237930298,-0.5462700724601746,9.787541389465332,-0.0319392904639244,0.0009301270474679,0.3328487277030945,0.3223601877689361,0.1987102925777435,0.6118959784507751,3.4795332193417265,-8.40609984062002,171.75499158479423,0.1179439305785035,0.1025042838092722,-0.023,-0.078,-0.003,0.5
2025-07-30 17:29:34.607631,1753867774.607631,-0.846651554107666,-0.5086864829063416,9.88946533203125,-0.0551261082291603,0.0042921216227114,0.3324560225009918,0.3223615884780884,0.1981347203254699,0.6115155816078186,3.4467166608408544,-8.396343566708191,171.90370085269123,0.1179583806969761,0.1029814001826763,-0.023,-0.078,-0.003,0.5
2025-07-30 17:29:34.622352,1753867774.622352,-0.9737122058868408,-0.6711958646774292,9.613710403442385,-0.0711004808545112,0.0092876469716429,0.3260502815246582,0.3214278817176819,0.1993203163146972,0.6116689443588257,3.399905396243931,-8.38242670459864,172.11582757180946,0.1179789931057776,0.1036619840653022,-0.023,-0.078,-0.003,0.5
2025-07-30 17:29:34.627776,1753867774.627776,-0.9253780245780944,-0.6935732364654541,9.48367977142334,-0.0505141392350196,0.0035901193041354,0.324784904718399,0.3184529542922973,0.1994650512933731,0.6123689413070679,3.382657464953765,-8.37729894136671,172.19398711540788,0.1179865878890802,0.1039127498616507,-0.023,-0.078,-0.003,0.5
2025-07-30 17:29:34.637957,1753867774.637957,-0.8370352983474731,-0.4561145305633545,9.60869598388672,-0.0480213388800621,-0.0019479015609249,0.3123451471328735,0.3172926008701324,0.1996356695890426,0.6133527755737305,3.3502821502335904,-8.367673848035144,172.34069687322247,0.1180008437146349,0.1043834510397373,-0.023,-0.078,-0.003,0.5
2025-07-30 17:29:34.649253,1753867774.649253,-0.8615384101867676,-0.4111387431621551,9.807384490966797,-0.0714611858129501,-0.0138044403865933,0.3006486594676971,0.3165797591209411,0.200988620519638,0.6119499206542969,3.3143624804021403,-8.356995027533943,172.50346798779853,0.1180166602264287,0.1049056832111394,-0.023,-0.078,-0.003,0.5
2025-07-30 17:29:34.656776,1753867774.656776,-0.8857208490371704,-0.6168498396873474,9.554308891296388,-0.0825253278017044,0.0100503675639629,0.2929516732692718,0.3159787654876709,0.2015450298786163,0.6123391389846802,3.2904397892403865,-8.3498828762803,172.61187441587344,0.1180271941074102,0.1052534926150066,-0.023,-0.078,-0.003,0.5
2025-07-30 17:29:34.667223,1753867774.667223,-0.8322299718856812,-0.5527231693267822,9.72836208343506,-0.0374359153211116,0.0222924873232841,0.2821329236030578,0.3154365420341491,0.2005520761013031,0.6128636598587036,3.257219136349288,-8.340006466201325,172.7624148502205,0.1180418221608059,0.1057364840727824,-0.023,-0.078,-0.003,0.5
2025-07-30 17:29:34.679543,1753867774.679543,-0.754618763923645,-0.3953226506710052,9.844054222106934,-0.060208935290575,0.0374116972088813,0.2699722349643707,0.3145214021205902,0.2005548924207687,0.6125665903091431,3.2180424505695937,-8.328359343684983,172.93994523509537,0.1180590728347566,0.106306069644673,-0.023,-0.078,-0.003,0.5
2025-07-30 17:29:34.687892,1753867774.687892,-1.0207544565200806,-0.6985117793083191,9.586257934570312,-0.0763264149427414,0.0147500922903418,0.2706104815006256,0.3118462860584259,0.2007092535495758,0.6132621765136719,3.191493524946779,-8.320466420042974,173.06025252730322,0.1180707631258198,0.1066920615856194,-0.023,-0.078,-0.003,0.5
2025-07-30 17:29:34.697131,1753867774.697131,-0.6568952798843384,-0.6439839601516724,9.317611694335938,-0.0573652796447277,0.0055994880385696,0.2535794973373413,0.3115852773189544,0.2009085714817047,0.6142326593399048,3.1621144222907254,-8.311732092438556,173.1933848558299,0.118083699629018,0.1071192011625117,-0.023,-0.078,-0.003,0.5
2025-07-30 17:29:34.713566,1753867774.713566,-0.9206957817077636,-0.4243055284023285,9.972919464111328,-0.0653584748506546,0.0280176047235727,0.2390163689851761,0.3106371462345123,0.2015501409769058,0.6136952638626099,3.109852053255284,-8.296194631751531,173.43021342630956,0.1181067123231797,0.1078790380594562,-0.023,-0.078,-0.003,0.5
2025-07-30 17:29:34.719707,1753867774.719707,-0.938758373260498,-0.5652127861976624,9.716073989868164,-0.1168963238596916,0.0233228281140327,0.2271149605512619,0.3082116842269897,0.2029598653316497,0.614216148853302,3.0903243624315118,-8.29038910218824,173.5187037720003,0.1181153109532247,0.1081629490316121,-0.023,-0.078,-0.003,0.5
2025-07-30 17:29:34.727534,1753867774.727534,-0.8592966794967651,-0.7762474417686462,9.57770538330078,-0.0819575488567352,0.0238803420215845,0.2160292714834213,0.3070369362831116,0.2025864720344543,0.6145092248916626,3.0654350289666823,-8.282989570797426,173.63149057010105,0.1181262704759078,0.1085248123427472,-0.023,-0.078,-0.003,0.5
2025-07-30 17:29:34.737430,1753867774.73743,-0.9451699256896972,-0.3325728178024292,9.769636154174805,-0.0489653013646602,0.0265259873121976,0.1975674629211425,0.3067786991596222,0.2016346007585525,0.6147189140319824,3.0339664626343343,-8.27363405130434,173.7740913690522,0.1181401270328546,0.1089823304046829,-0.023,-0.078,-0.003,0.5
2025-07-30 17:29:34.747432,1753867774.747432,-1.0412979125976562,-0.0688105896115303,9.984404563903809,-0.1095816865563392,0.0003550927503965,0.1817245483398437,0.3047433197498321,0.2014414072036743,0.6159912943840027,3.002161277335268,-8.264178455904661,173.91821756744764,0.1181541318132645,0.1094447425331495,-0.023,-0.078,-0.003,0.5
2025-07-30 17:29:34.765197,1753867774.765197,-0.1940470337867736,-0.5858322381973267,9.67774772644043,-0.1056914776563644,-0.0089578432962298,0.1625941097736358,0.3025946319103241,0.202620267868042,0.6158519983291626,2.92690495811226,-8.251272844922573,174.09662207278402,0.1179659038211514,0.1102725181927045,-0.021,-0.075,-0.004,0.5
2025-07-30 17:29:34.767211,1753867774.767211,-0.8699477910995483,-0.6270837187767029,9.464521408081056,-0.0694595128297805,0.028715731576085,0.1636374443769455,0.3010497689247131,0.2020914554595947,0.6145626902580261,2.909365780650669,-8.25167670760687,174.0796021471725,0.117842269255165,0.1103694566633052,-0.021,-0.075,-0.004,0.5
2025-07-30 17:29:34.780153,1753867774.780153,-0.9830946922302246,-0.3470469117164612,9.21199893951416,-0.0562225393950939,-0.0076453848741948,0.1202101856470108,0.3016651570796966,0.2020790427923202,0.6148642301559448,2.796653673376189,-8.254272052473894,173.97022691076057,0.1170477558012241,0.1109924128607263,-0.021,-0.075,-0.004,0.5
2025-07-30 17:29:34.787442,1753867774.787442,-0.2774226665496826,-1.1591072082519531,9.975881576538086,-0.0920372828841209,0.0739568471908569,0.1307606697082519,0.3013625741004944,0.2032206803560257,0.6156293749809265,2.733174599935233,-8.255733741829209,173.90862715158025,0.1166002885405,0.111343259661153,-0.021,-0.075,-0.004,0.5
2025-07-30 17:29:34.797452,1753867774.797452,-0.6903685927391052,-0.7798576951026917,10.005026817321776,-0.0664974674582481,0.0374361798167228,0.0964516326785087,0.2989872395992279,0.2033845484256744,0.6163205504417419,2.645997807497104,-8.257741102406957,173.8240312504555,0.1159857748370623,0.1118250829934804,-0.021,-0.075,-0.004,0.5
2025-07-30 17:29:34.809319,1753867774.809319,-0.8160021305084229,-0.7897841930389404,9.273548126220703,-0.0752915367484092,0.0450391992926597,0.0805338025093078,0.298373281955719,0.2028213888406753,0.6156386137008667,2.542648095294757,-8.260120865784279,173.72374123300682,0.1152572573885709,0.1123962935339892,-0.021,-0.075,-0.004,0.5
2025-07-30 17:29:34.817578,1753867774.817578,-0.2969554960727691,-0.3970578908920288,9.90194034576416,-0.17343170940876,0.0072277667932212,0.050339825451374,0.2983345091342926,0.202612429857254,0.6146726012229919,2.4707202337525573,-8.261777099624311,173.65394281426532,0.1147502341850271,0.1127938365149384,-0.021,-0.075,-0.004,0.5
2025-07-30 17:29:34.827645,1753867774.827645,-0.4242829382419586,-0.5017427206039429,9.720389366149902,-0.1503749340772628,0.052953690290451,0.0189494043588638,0.2968527674674988,0.2019574344158172,0.6146246790885925,2.3830471866188754,-8.263795887120676,173.56886535019265,0.1141322223566609,0.113278402631032,-0.021,-0.075,-0.004,0.5
2025-07-30 17:29:34.837965,1753867774.837965,-0.6388897895812988,-0.3423343300819397,9.397987365722656,-0.1161573827266693,0.023133972659707,-0.0091851595789194,0.2953452467918396,0.2022131383419037,0.6146818399429321,2.293171100857664,-8.265865402485874,173.48165006901638,0.1134986811954533,0.1137751448708745,-0.021,-0.075,-0.004,0.5
2025-07-30 17:29:34.849873,1753867774.849873,-0.345391184091568,-0.4544524550437927,9.954232215881348,-0.1208381056785583,0.0355242602527141,-0.0513032190501689,0.2935063540935516,0.2025223821401596,0.6141226887702942,2.18946425138488,-8.268253389419689,173.3810134874378,0.1127676462679339,0.1143483292976084,-0.021,-0.075,-0.004,0.5
2025-07-30 17:29:34.856749,1753867774.856749,-0.8554847240447998,0.0075841294601559,10.12653636932373,-0.082784503698349,0.0260743275284767,-0.0714804455637931,0.2929355502128601,0.2035913467407226,0.6155130863189697,2.12958146720206,-8.269632269473572,173.32290354844918,0.1123455294355618,0.1146792995227918,-0.021,-0.075,-0.004,0.5
2025-07-30 17:29:34.870956,1753867774.870956,-0.1992086172103881,-0.4220003187656402,10.079187393188477,-0.13882477581501,0.0183838866651058,-0.1125809401273727,0.2929685115814209,0.2029526382684707,0.6157532930374146,2.005854166789929,-8.272481253684763,173.20283922651944,0.1114733693174137,0.1153631363389576,-0.021,-0.075,-0.004,0.5
2025-07-30 17:29:34.877178,1753867774.877178,-0.999739408493042,-0.4299675226211548,9.934228897094728,-0.1146345436573028,-0.0048814178444445,-0.1525321304798126,0.2930817902088165,0.2015805840492248,0.6171650290489197,1.9516668915188116,-8.273728987137126,173.15025617943945,0.111091400420936,0.1156626276692839,-0.021,-0.075,-0.004,0.5
2025-07-30 17:29:34.886527,1753867774.886527,-0.3540310859680176,-0.4089368879795074,9.401578903198242,-0.1184137910604476,-0.037237774580717,-0.1872557550668716,0.2916717231273651,0.2004957944154739,0.618323564529419,1.870245822997282,-8.275603814583482,173.0712456025476,0.1105174591120661,0.1161126393003557,-0.021,-0.075,-0.004,0.5
2025-07-30 17:29:34.896758,1753867774.896758,-0.8405424356460571,-0.1914433240890503,9.371429443359377,-0.1597513407468795,0.0186417717486619,-0.2214263379573822,0.2925783097743988,0.2007965445518493,0.6186556816101074,1.781144226781847,-8.277655496305819,172.98478188195537,0.1098893773675878,0.1166051009613497,-0.021,-0.075,-0.004,0.5
2025-07-30 17:29:34.906623,1753867774.906623,-0.3643575608730316,-0.4078922271728515,9.924590110778809,-0.1586325913667678,0.0159291066229343,-0.2569016218185425,0.2928708791732788,0.2005340903997421,0.6183058619499207,1.6952319494466064,-8.279633739756216,172.90141305963937,0.10928377729629,0.1170799353593103,-0.021,-0.075,-0.004,0.5
2025-07-30 17:29:34.917518,1753867774.917518,-0.8325827121734619,-0.4519143104553222,9.563018798828123,-0.1272561699151992,0.0601083934307098,-0.2761998474597931,0.2928551137447357,0.2005656361579895,0.6179955005645752,1.600347636381339,-8.281818576157821,172.80933782101374,0.1086149328826662,0.117604357910635,-0.021,-0.075,-0.004,0.5
2025-07-30 17:29:34.927466,1753867774.927466,-0.8526654839515686,0.0387254282832145,9.551281929016112,-0.1319059282541275,0.0005675534484907,-0.2979697585105896,0.2934230864048004,0.2006479054689407,0.6173658967018127,1.5137107026078251,-8.28381350577808,172.7252657958993,0.1080042246707824,0.1180831974614593,-0.021,-0.075,-0.004,0.5
2025-07-30 17:29:34.937325,1753867774.937325,-0.0657996535301208,0.2186057567596435,9.745112419128418,-0.1901827454566955,0.0513554736971855,-0.3150754272937774,0.2937558889389038,0.2000187635421753,0.6176018118858337,1.427848258380087,-8.285790601755478,172.64194533136887,0.107398975875628,0.118557756433435,-0.021,-0.075,-0.004,0.5
2025-07-30 17:29:34.946810,1753867774.94681,-1.1624091863632202,-0.4782020151615143,9.76610279083252,-0.1756051629781723,0.045886293053627,-0.3305801153182983,0.293424516916275,0.2000722885131836,0.6169854998588562,1.345243653555361,-8.287692681685561,172.5617862570698,0.1068166917583513,0.1190143094316482,-0.021,-0.075,-0.004,0.5
2025-07-30 17:29:34.956529,1753867774.956529,-0.1806471347808838,-0.4156005084514618,9.31662654876709,-0.1180241331458091,0.0562490224838256,-0.3528193533420563,0.2931333184242248,0.1997591257095337,0.6169549226760864,1.2606021204614477,-8.289641664574482,172.47965055828575,0.1062200492287113,0.119482120466994,-0.022,-0.062,-0.009,0.5
2025-07-30 17:29:34.966865,1753867774.966865,-1.021585464477539,0.3503161072731018,10.087292671203612,-0.1346540004014969,0.0648819059133529,-0.3814968466758728,0.2934732437133789,0.1994020342826843,0.617536187171936,1.1887122109595871,-8.291569411182758,172.36033237967956,0.105543096139449,0.1196295553816617,-0.022,-0.062,-0.009,0.5
2025-07-30 17:29:34.977497,1753867774.977497,-0.6918091773986816,0.0363153368234634,10.323152542114258,-0.1733676642179489,0.0371072776615619,-0.3903027772903442,0.2940728366374969,0.1994211673736572,0.6175273656845093,1.13419142727043,-8.29339692333818,172.20334099074876,0.1048013072512227,0.1194060235232481,-0.022,-0.062,-0.009,0.5
2025-07-30 17:29:34.986792,1753867774.986792,-0.8490585088729858,-0.180044800043106,9.797467231750488,-0.1699236035346985,0.0148833198472857,-0.4092334806919098,0.2926254272460937,0.1975518465042114,0.6173393726348877,1.086527004412972,-8.294994613361308,172.066092340956,0.1041528033808278,0.1192106023223665,-0.022,-0.062,-0.009,0.5
2025-07-30 17:29:34.996928,1753867774.996928,-0.1269562393426895,-0.223485991358757,9.959454536437988,-0.12077646702528,0.0033906865864992,-0.4165784418582916,0.2936036884784698,0.1974228322505951,0.6188778877258301,1.0345504587571184,-8.296736843801805,171.91642702908408,0.1034456304202239,0.1189975016833402,-0.022,-0.062,-0.009,0.5
2025-07-30 17:29:35.006969,1753867775.006969,-1.1314932107925415,0.0648350864648819,9.237404823303224,-0.1395948380231857,0.0166829526424407,-0.4375072717666626,0.2948416173458099,0.197670042514801,0.6198262572288513,0.9830605093229152,-8.298462763755735,171.7681628602537,0.1027450779013279,0.118786396058882,-0.022,-0.062,-0.009,0.5
2025-07-30 17:29:35.016857,1753867775.016857,-0.2159871906042099,-0.5618700981140137,9.715286254882812,-0.1643129736185073,0.0202843639999628,-0.4428790807723999,0.2950940430164337,0.1977742612361908,0.6188907623291016,0.9323554713819276,-8.300162373829329,171.62215882668127,0.1020552045873975,0.1185785085232497,-0.022,-0.062,-0.009,0.5
2025-07-30 17:29:35.027640,1753867775.02764,-0.9067990779876708,-0.2627960741519928,10.333568572998049,-0.1363998055458068,0.0672622993588447,-0.4502922594547272,0.2956950068473816,0.1972178071737289,0.6185015439987183,0.8770595570281311,-8.302015868016113,171.4629354661717,0.1013028695684106,0.1183517986768055,-0.022,-0.062,-0.009,0.5
2025-07-30 17:29:35.037122,1753867775.037122,-0.8231787085533142,-0.1551117300987243,9.845707893371582,-0.0904920622706413,0.0017677554860711,-0.4531522691249847,0.2972413003444671,0.1971710175275802,0.6194104552268982,0.828436612970236,-8.303645687238905,171.32292677581472,0.100641324425908,0.1181524475979808,-0.022,-0.062,-0.009,0.5
2025-07-30 17:29:35.047168,1753867775.047168,-0.5380699634552002,0.3552389740943908,9.46731185913086,-0.1854944974184036,0.0043140156194567,-0.4614573121070862,0.2981190681457519,0.1963836401700973,0.6183610558509827,0.7769209888610212,-8.3053724677964,171.17458867732637,0.0999404225872233,0.1179412367089348,-0.022,-0.062,-0.009,0.5
2025-07-30 17:29:35.057525,1753867775.057525,-0.4710479974746704,-0.2878710627555847,9.803399085998535,-0.173886090517044,0.0256148502230644,-0.4876972138881683,0.2992622852325439,0.1968201696872711,0.6174472570419312,0.7238110896939363,-8.307152687737009,171.021659899124,0.0992178296530943,0.1177234893902487,-0.022,-0.062,-0.009,0.5
2025-07-30 17:29:35.067553,1753867775.067553,-0.6832955479621887,-0.1283654868602752,9.43071174621582,-0.1262000948190689,0.0225184112787246,-0.4921113848686218,0.2995147109031677,0.1969243884086609,0.6165117621421814,0.6723871608526205,-8.308876394710351,170.8735858351284,0.0985181753850831,0.1175126544461591,-0.022,-0.062,-0.009,0.5
2025-07-30 17:29:35.076472,1753867775.076472,-0.9142332077026368,0.2096093893051147,10.055609703063965,-0.11856609582901,0.0660574063658714,-0.5005204677581787,0.3001530766487121,0.1971524655818939,0.6174690127372742,0.626650783828185,-8.310409457504049,170.74188895060328,0.0978959037673844,0.1173251381145585,-0.022,-0.062,-0.009,0.5
2025-07-30 17:29:35.086920,1753867775.08692,-0.7561629414558411,-0.1165119782090187,9.998427391052246,-0.107632040977478,0.0769964978098869,-0.5098908543586731,0.3016849458217621,0.1965616196393966,0.6176872253417969,0.5730738500966013,-8.31220533223327,170.58761535671783,0.097166956539958,0.117105475982895,-0.022,-0.062,-0.009,0.5
2025-07-30 17:29:35.097676,1753867775.097676,-0.7616093754768372,-0.0400596298277378,9.641031265258787,-0.1328718662261963,0.017051625996828,-0.517534077167511,0.3026502132415771,0.1953129321336746,0.6181545853614807,0.5179173125500114,-8.314054154572146,170.42879332863723,0.0964165178283949,0.1168793375727844,-0.022,-0.062,-0.009,0.5
2025-07-30 17:29:35.107199,1753867775.107199,-0.5877870321273804,-0.3025611042976379,10.009591102600098,-0.1021834760904312,0.0193393435329198,-0.5408919453620911,0.3020177185535431,0.1959324777126312,0.6179230809211731,0.4690840806777345,-8.315691022547925,170.28817911917687,0.0957521115904809,0.11667912432686,-0.022,-0.062,-0.009,0.5
2025-07-30 17:29:35.123197,1753867775.123197,-0.7683308124542236,0.1101182773709297,9.704648971557615,-0.1007538139820098,0.0068597071804106,-0.5454555749893188,0.3035640120506286,0.1958856880664825,0.6188320517539978,0.3870461583938818,-8.318440896816684,170.0519527392009,0.0946359350602554,0.1163427738933619,-0.022,-0.062,-0.009,0.5
2025-07-30 17:29:35.129854,1753867775.129854,-0.5991947650909424,0.1939897984266281,9.86609172821045,-0.1497685462236404,0.0494074076414108,-0.556350588798523,0.3042222857475281,0.1943554133176803,0.6189584732055664,0.3529098440604523,-8.319585130724644,169.95365797823897,0.0941714894499005,0.1162028171050324,-0.022,-0.062,-0.009,0.5
2025-07-30 17:29:35.136702,1753867775.136702,-0.7546401619911194,-0.0913973748683929,9.782418251037598,-0.1289580017328262,0.053986769169569,-0.5611448287963867,0.3051230609416961,0.1938085258007049,0.618564784526825,0.3177930016622898,-8.320762231492465,169.8525398084345,0.0936937031504763,0.1160588402119702,-0.022,-0.062,-0.009,0.5
2025-07-30 17:29:35.146715,1753867775.146715,-0.8121438026428223,-0.0300109554082155,9.853592872619627,-0.0834957435727119,0.0226312652230262,-0.5673990249633789,0.3069877028465271,0.1925885677337646,0.6190188527107239,0.266447319449581,-8.322483315673997,169.7046910538727,0.0929951134761066,0.1158483260742433,-0.022,-0.062,-0.009,0.5
2025-07-30 17:29:35.158193,1753867775.158193,-0.7192959785461426,0.1693544387817382,9.938638687133787,-0.0782390609383583,0.0207186825573444,-0.573614776134491,0.3094131052494049,0.1911788135766983,0.6184979677200317,0.2075875156834446,-8.324456269831474,169.53520555274483,0.0921942895436071,0.1156070045004978,-0.019,-0.036,-0.017,0.5
2025-07-30 17:29:35.169260,1753867775.16926,-1.6244077682495115,0.1913093775510788,9.90038776397705,-0.0923063680529594,0.0303560718894004,-0.5824350118637085,0.3123622536659241,0.1919447779655456,0.6179030537605286,0.1508367030789845,-8.326358531553463,169.37179284495025,0.0914221597365997,0.1153743296607471,-0.019,-0.036,-0.017,0.5
2025-07-30 17:29:35.180030,1753867775.18003,-0.4504327178001404,-0.3320799767971039,10.009586334228516,-0.0908051282167434,0.1072707921266555,-0.5167599320411682,0.3150088191032409,0.1938523948192596,0.6180733442306519,0.0956080319216473,-8.328209771778537,169.2127631097353,0.0906707396027734,0.1151478955072708,-0.019,-0.036,-0.017,0.5
2025-07-30 17:29:35.187407,1753867775.187407,-1.8164962530136108,0.6430771350860596,10.33364963531494,-0.0813732743263244,0.0311601851135492,-0.5180134177207947,0.3156269788742065,0.1926887780427932,0.6176140308380127,0.0577794548008192,-8.329477768675002,169.1038365598652,0.090156058479963,0.1149928006687012,-0.019,-0.036,-0.017,0.5
2025-07-30 17:29:35.197756,1753867775.197756,-0.4277279675006866,-0.4047659337520599,8.931413650512695,-0.0835475847125053,-0.0035599176771938,-0.5017053484916687,0.3165033459663391,0.1924770027399063,0.6169450283050537,0.0047099015516099,-8.331256636238585,168.95102395683966,0.0894340144769302,0.1147752187657959,-0.019,-0.036,-0.017,0.5
2025-07-30 17:29:35.210588,1753867775.210588,-1.2120691537857056,-0.6146677732467651,9.334271430969238,-0.0555657148361206,0.0065860734321177,-0.463859885931015,0.3176150023937225,0.1929766535758972,0.6154105067253113,-0.0610918452962648,-8.333462281206899,168.76154928438044,0.0885387411273041,0.1145054356525591,-0.019,-0.036,-0.017,0.5
2025-07-30 17:29:35.217035,1753867775.217035,-1.4236350059509275,0.3052959740161896,10.297037124633787,0.0037659250665456,0.0073360740207135,-0.4356983304023742,0.3187983632087707,0.1930464655160904,0.6150824427604675,-0.0941522684863462,-8.33457045172748,168.66635252813344,0.088088933679519,0.1143698899517168,-0.019,-0.036,-0.017,0.5
2025-07-30 17:29:35.229763,1753867775.229763,-0.947690486907959,0.3795907497406006,10.480319023132324,-0.1313602179288864,0.046436108648777,-0.4034939408302307,0.3190580010414123,0.1934227347373962,0.6144923567771912,-0.159420960176835,-8.336758228926593,168.4784127761921,0.0872009128740751,0.114102292331826,-0.019,-0.036,-0.017,0.5
2025-07-30 17:29:35.237050,1753867775.23705,-0.5671592354774475,-0.2401957064867019,10.10217571258545,-0.0798682495951652,0.1043237745761871,-0.399859756231308,0.320274293422699,0.1928538680076599,0.6144046187400818,-0.1967886157510242,-8.338010775940054,168.37081343970553,0.0866925028731838,0.1139490872432366,-0.019,-0.036,-0.017,0.5
2025-07-30 17:29:35.247426,1753867775.247426,-1.3418442010879517,-0.0239127613604068,9.433799743652344,0.0310898479074239,0.0181414596736431,-0.3826837539672851,0.3214590549468994,0.1923480927944183,0.6136961579322815,-0.249996323203868,-8.339794274370426,168.2176030247109,0.0859685791970029,0.1137309389165971,-0.019,-0.036,-0.017,0.5
2025-07-30 17:29:35.257447,1753867775.257447,-0.7155017852783203,0.5732866525650024,9.426299095153809,-0.0241702552884817,-0.0750067755579948,-0.37176114320755,0.3223412632942199,0.1929839551448822,0.6137529611587524,-0.3013835739380243,-8.34151675191011,168.0696345745124,0.0852694239572612,0.11352025435049,-0.019,-0.036,-0.017,0.5
2025-07-30 17:29:35.266919,1753867775.266919,-0.713776171207428,0.1047142893075943,10.392475128173828,-0.0403864085674285,0.0480748228728771,-0.3534519374370575,0.3235905468463897,0.1917764097452163,0.6139054894447327,-0.3499551686458961,-8.343144849925775,167.92977374347134,0.0846085774543358,0.1133211138008408,-0.019,-0.036,-0.017,0.5
2025-07-30 17:29:35.277412,1753867775.277412,-1.210988163948059,0.0261562056839466,9.68462085723877,-0.0090762916952371,0.0520608685910701,-0.3396666646003723,0.3242460787296295,0.1913973242044448,0.6147926449775696,-0.4037631744525851,-8.34494847008706,167.7748347826642,0.083876486348812,0.1131005042878875,-0.019,-0.036,-0.017,0.5
2025-07-30 17:29:35.287686,1753867775.287686,-0.9091153740882874,0.1462442278861999,9.31253433227539,-0.0318097025156021,0.0418065525591373,-0.3276489675045013,0.3246247768402099,0.191249132156372,0.6163400411605835,-0.4564488301801908,-8.346714469578327,167.6231276040483,0.0831596655083326,0.1128844963411992,-0.019,-0.036,-0.017,0.5
2025-07-30 17:29:35.304658,1753867775.304658,-0.6720443964004517,-0.0558693371713161,10.39234447479248,0.0175205953419208,0.055214300751686,-0.3262505233287811,0.3255313336849212,0.1915498822927475,0.616672158241272,-0.5434798654520356,-8.349631710749422,167.37252366582698,0.0819755545963626,0.112527674451681,-0.019,-0.036,-0.017,0.5
2025-07-30 17:29:35.307339,1753867775.307339,-0.9572088718414308,0.4190511107444763,10.387775421142578,0.0243616830557584,0.0018290672451257,-0.3126633167266845,0.3269685208797455,0.1911483407020568,0.6150282025337219,-0.5572280426190215,-8.350092543466554,167.3329360942136,0.081788502166706,0.1124713077712338,-0.019,-0.036,-0.017,0.5
2025-07-30 17:29:35.320949,1753867775.320949,-0.9322189688682556,0.2144514620304107,9.464420318603516,-0.0502938888967037,-0.0180965140461921,-0.3024660646915436,0.3275536894798279,0.1906234323978424,0.6143285632133484,-0.6270203675258595,-8.352431950817145,167.1319706406298,0.0808389345413663,0.1121851635334991,-0.019,-0.036,-0.017,0.5
2025-07-30 17:29:35.327084,1753867775.327084,-0.7942946553230286,-0.0463721118867397,9.642534255981444,0.0079653672873973,0.0262081157416105,-0.2938887774944305,0.327578067779541,0.1902883201837539,0.6146038770675659,-0.6584804026402109,-8.353486477049,167.04138216639632,0.0804109013604038,0.112056179325294,-0.019,-0.036,-0.017,0.5
2025-07-30 17:29:35.337725,1753867775.337725,-0.72821444272995,0.3382715582847595,9.971710205078123,0.0538442954421043,0.0885489284992218,-0.2826383411884308,0.3284688293933868,0.1906206160783767,0.6146256327629089,-0.7130464226615315,-8.355315505505937,166.88426052044903,0.0796684970039785,0.1118324620007019,-0.019,-0.036,-0.017,0.5
2025-07-30 17:29:35.352515,1753867775.352515,-1.055606245994568,0.3485893607139587,9.826645851135254,-0.0117845889180898,0.0106963282451033,-0.276082843542099,0.3296851813793182,0.190051719546318,0.6145378947257996,-0.7888894126461299,-8.357857728429414,166.66587231080345,0.0786366063484591,0.1115215104084512,-0.019,-0.036,-0.017,0.5
2025-07-30 17:29:35.359260,1753867775.35926,-0.8271995782852173,-0.121436096727848,9.786136627197266,0.006198747549206,-0.0208759047091007,-0.2696035206317901,0.3308784961700439,0.1892423927783966,0.6137943863868713,-0.8234780903011943,-8.359017125352521,166.56627497967722,0.0781660060561146,0.1113796989583373,-0.019,-0.02,-0.021,0.5
2025-07-30 17:29:35.367347,1753867775.367347,-0.7143036723136902,0.1618914157152176,9.961678504943848,0.065301276743412,-0.0068234922364354,-0.2650869488716125,0.3305399715900421,0.1890238970518112,0.61283278465271,-0.8563711737545314,-8.353895447671118,166.40929134645094,0.0776378923302357,0.1112513406632841,-0.019,-0.02,-0.021,0.5
2025-07-30 17:29:35.377777,1753867775.377777,-0.8201112151145935,0.4929271638393402,10.238040924072266,0.0167186185717582,0.000488962396048,-0.2600516974925995,0.3323458731174469,0.189353346824646,0.6131516098976135,-0.8937212003480672,-8.343437440078906,166.18459358520423,0.076978117392503,0.1111104391079463,-0.019,-0.02,-0.021,0.5
2025-07-30 17:29:35.396898,1753867775.396898,-0.7662044167518616,0.0616128966212272,9.915019989013672,-0.0207597836852073,0.0037712382618337,-0.248814508318901,0.3341703712940216,0.1885000616312027,0.6130200028419495,-0.9621929763047036,-8.324265342543354,165.77266737873933,0.0757685878194757,0.1108521319363335,-0.019,-0.02,-0.021,0.5
2025-07-30 17:29:35.398358,1753867775.398358,-0.7367399334907532,-0.0772393718361854,9.458949089050291,0.0618127472698688,0.0242661200463771,-0.2452523857355117,0.33391073346138,0.1881238222122192,0.6136100888252258,-0.9674214848392046,-8.322801360133251,165.74121267121942,0.0756762280755235,0.1108324075866663,-0.019,-0.02,-0.021,0.5
2025-07-30 17:29:35.407374,1753867775.407374,-0.758298397064209,0.3945800364017486,9.843897819519045,0.0720508396625518,0.0078142313286662,-0.2421553879976272,0.3339278995990753,0.1875166594982147,0.6135400533676147,-0.9997069273983414,-8.313761436090473,165.54698344769454,0.0751059172137419,0.1107106119820511,-0.019,-0.02,-0.021,0.5
2025-07-30 17:29:35.417699,1753867775.417699,-0.8660293221473694,0.3815873861312866,10.046655654907228,0.0191652998328208,-0.0198948010802268,-0.236539140343666,0.3353952765464782,0.1876276135444641,0.6128972172737122,-1.0366812936791436,-8.303408613387296,165.32454565890194,0.074452778181845,0.110571127590961,-0.019,-0.02,-0.021,0.5
2025-07-30 17:29:35.427376,1753867775.427376,-0.7569624781608582,-0.0170845109969377,9.662518501281738,0.0346377156674861,-0.0071669882163405,-0.2290985584259033,0.336019217967987,0.1873116493225097,0.6131636500358582,-1.0713342499819398,-8.293705785487035,165.11607347261534,0.0738406460316931,0.1104404006307568,-0.019,-0.02,-0.021,0.5
2025-07-30 17:29:35.441378,1753867775.441378,-0.772923469543457,0.1120318993926048,9.586942672729492,0.0704395696520805,0.0084175113588571,-0.2257107943296432,0.3369429409503937,0.1870052218437194,0.6134257316589355,-1.1214755102240537,-8.279666232423214,164.81442364930732,0.0729549185002486,0.1102512446327812,-0.019,-0.02,-0.021,0.5
2025-07-30 17:29:35.448829,1753867775.448829,-0.7668449282646179,0.3076691627502441,9.94147777557373,0.053687784820795,-0.0003793495125137,-0.2234651744365692,0.3378680646419525,0.1861232221126556,0.6133073568344116,-1.148156783935956,-8.27219547567957,164.65390910575647,0.072483603288255,0.110150590542081,-0.019,-0.02,-0.021,0.5
2025-07-30 17:29:35.457259,1753867775.457259,-0.7779009938240051,0.2834987044334411,9.966726303100586,0.0330131463706493,0.0035805192310363,-0.2168446183204651,0.3399909734725952,0.1858550906181335,0.6135517358779907,-1.178344505157851,-8.263742913619419,164.4722997738672,0.0719503479279251,0.1100367085114586,-0.019,-0.02,-0.021,0.5
2025-07-30 17:29:35.467006,1753867775.467006,-0.7441667914390564,0.1225590929389,9.782682418823242,0.0496439933776855,0.0022897173184901,-0.2134997993707656,0.3405359983444214,0.1856968700885772,0.612266480922699,-1.2132484708514284,-8.25396980308876,164.2623175150772,0.0713337817861464,0.1099050346278706,-0.019,-0.02,-0.021,0.5
2025-07-30 17:29:35.477560,1753867775.47756,-0.7923910617828369,0.1589608341455459,9.818245887756348,0.0726751163601875,-0.0047370800748467,-0.2095237821340561,0.3408673405647278,0.1856433451175689,0.6128827333450317,-1.25104245963274,-8.243387486082234,164.0349488772939,0.0706661644142441,0.1097624582420581,-0.019,-0.02,-0.021,0.5
2025-07-30 17:29:35.487023,1753867775.487023,-0.717828094959259,0.2631284594535827,9.93666934967041,0.0698144659399986,-0.0128561053425073,-0.2066186964511871,0.3411986827850342,0.1855898201465606,0.6134990453720093,-1.2849295811616228,-8.233899091921664,163.83108395303302,0.0700675604630348,0.1096346203644227,-0.019,-0.02,-0.021,0.5
2025-07-30 17:29:35.498168,1753867775.498168,-0.6959882974624634,0.2101693749427795,9.908848762512209,0.0574979558587074,-0.002260326873511,-0.2025210112333297,0.3423992395401001,0.1850524842739105,0.6131008863449097,-1.3248392205223751,-8.222724392744626,163.59098756129242,0.0693625708759931,0.1094840627672327,-0.019,-0.02,-0.021,0.5
2025-07-30 17:29:35.507983,1753867775.507983,-0.7577790021896362,0.1487065106630325,9.793668746948242,0.064433716237545,-0.0168740376830101,-0.2006617784500122,0.3429772555828094,0.1842555552721023,0.6120559573173523,-1.3599865116457912,-8.212883151092658,163.3795414567083,0.0687417064770253,0.1093514709477115,-0.019,-0.02,-0.021,0.5
2025-07-30 17:29:35.523526,1753867775.523526,-0.7015851736068726,0.1660832613706588,9.922683715820312,0.0762807354331016,-0.0285205729305744,-0.198990061879158,0.3438766002655029,0.1842842698097229,0.6120426654815674,-1.4156457096178987,-8.197298575442867,163.04469571983051,0.0677585065378142,0.1091414987394323,-0.019,-0.02,-0.021,0.5
2025-07-30 17:29:35.529809,1753867775.529809,-0.7129672169685364,0.2079461067914962,9.946702003479004,0.0739669948816299,-0.0279830787330865,-0.1954340487718582,0.3447543978691101,0.1834969073534011,0.6109932661056519,-1.4381452010303255,-8.190998717759424,162.90933877873437,0.0673610610230573,0.1090566202634724,-0.019,-0.02,-0.021,0.5
2025-07-30 17:29:35.536712,1753867775.536712,-0.7597838044166565,0.2109139412641525,9.73069953918457,0.0641915425658226,-0.039687555283308,-0.1926550269126892,0.3462533354759216,0.1835447698831558,0.6109711527824402,-1.462864503381633,-8.184077313004417,162.76062745495503,0.066924403337452,0.1089633676351391,-0.019,-0.02,-0.021,0.5
2025-07-30 17:29:35.549319,1753867775.549319,-0.7435528635978699,0.124800369143486,9.63221549987793,0.0720022544264793,-0.0415460243821144,-0.184694766998291,0.3478167951107025,0.1828908324241638,0.611810028553009,-1.5080103352378285,-8.171436479908184,162.4890301289852,0.0661269182720205,0.1087930567008314,-0.019,-0.02,-0.021,0.5
2025-07-30 17:29:35.556829,1753867775.556829,-0.6822994351387024,0.1695211678743362,9.745954513549805,0.0894764438271522,-0.0199907235801219,-0.1840550750494003,0.34782674908638,0.1820116639137268,0.6113946437835693,-1.5349033447623623,-8.163906437136173,162.3272417827784,0.0656518628221921,0.1086916038448279,-0.019,-0.02,-0.021,0.5
2025-07-30 17:29:35.571890,1753867775.57189,-0.6993475556373596,0.2136354297399521,9.84213161468506,0.0799671337008476,-0.0170038565993309,-0.1807456314563751,0.3481121659278869,0.1814771890640258,0.6106994152069092,-1.5324876101168372,-8.159207971677832,162.09351358484793,0.065858030943029,0.109075409058715,-0.021,-0.009,-0.016,0.5
2025-07-30 17:29:35.578523,1753867775.578523,-0.7213610410690308,0.1996665000915527,9.83222770690918,0.0756803452968597,-0.0245753303170204,-0.1827758997678756,0.3484019339084625,0.1823659390211105,0.6111104488372803,-1.5191865031169884,-8.159397987563182,162.01028665691254,0.0662004978710349,0.1093719689863569,-0.021,-0.009,-0.016,0.5
2025-07-30 17:29:35.587332,1753867775.587332,-0.7333360314369202,0.159736156463623,9.799764633178713,0.0866391509771347,-0.0333026386797428,-0.1764420717954635,0.3489871323108673,0.1818410158157348,0.6104108095169067,-1.501521179557305,-8.159650349422703,161.89975220208305,0.0666553313741248,0.1097658329765263,-0.021,-0.009,-0.016,0.5
2025-07-30 17:29:35.597884,1753867775.597884,-0.7306392788887024,0.184411272406578,9.877473831176758,0.0805098488926887,-0.0336669161915779,-0.1785149425268173,0.3505204021930694,0.1806745827198028,0.6102486252784729,-1.4803608490900402,-8.159952639971008,161.76734898940998,0.0672001516940272,0.1102376212323702,-0.021,-0.009,-0.016,0.5
2025-07-30 17:29:35.614760,1753867775.61476,-0.7172723412513733,0.1610486209392547,9.791589736938477,0.080180250108242,-0.038072183728218,-0.1745890378952026,0.3517209887504577,0.1801372468471527,0.6098505258560181,-1.4465185681133943,-8.16043610130863,161.5555929994729,0.0680714973649488,0.1109921647750833,-0.021,-0.009,-0.016,0.5
2025-07-30 17:29:35.616810,1753867775.61681,-0.7225213646888733,0.1064337790012359,9.751300811767578,0.0879242941737175,-0.0299467351287603,-0.1689188778400421,0.3535039126873016,0.1802262514829635,0.6095135807991028,-1.4424072733940665,-8.160494834112301,161.52986804069087,0.0681773518981595,0.1110838297218048,-0.021,-0.009,-0.016,0.5
2025-07-30 17:29:35.628634,1753867775.628634,-0.7268359661102295,0.1200197041034698,9.829261779785156,0.0986624732613563,-0.0337467119097709,-0.1673113107681274,0.3530018031597137,0.1788666099309921,0.6106237769126892,-1.4186962094313242,-8.160833563724168,161.38150452390082,0.0687878465912075,0.1116124888336505,-0.021,-0.009,-0.016,0.5
2025-07-30 17:29:35.637074,1753867775.637074,-0.7014354467391968,0.1960467100143432,9.915067672729492,0.0927549004554748,-0.0448789708316326,-0.1650737524032592,0.3539742827415466,0.1778899431228637,0.6114365458488464,-1.4017710049814809,-8.161075352449595,161.27560110014406,0.0692236240625018,0.1119898512146183,-0.021,-0.009,-0.016,0.5
2025-07-30 17:29:35.647408,1753867775.647408,-0.7251999974250793,0.146156832575798,9.84292221069336,0.0896505638957023,-0.054879792034626,-0.1638923585414886,0.3548750579357147,0.1773430407047271,0.611042857170105,-1.3810476699059442,-8.161371400204253,161.145932230107,0.069757192952778,0.1124518962722643,-0.021,-0.009,-0.016,0.5
2025-07-30 17:29:35.659080,1753867775.65908,-0.7390871047973633,0.0920483469963073,9.837828636169434,0.0923214331269264,-0.0563334561884403,-0.163101464509964,0.3563582003116607,0.1774224638938903,0.6107103824615479,-1.357641164000675,-8.1617057789851,160.99947437662016,0.0703598461133623,0.1129737649932434,-0.021,-0.009,-0.016,0.5
2025-07-30 17:29:35.668310,1753867775.66831,-0.7523277997970581,0.1123240366578102,9.833602905273438,0.096301794052124,-0.0511372573673725,-0.1584209948778152,0.3566106259822845,0.1775266826152801,0.6097748875617981,-1.339131970784099,-8.161970196129943,160.8836597087135,0.0708364069395267,0.1133864438026899,-0.021,-0.009,-0.016,0.5
2025-07-30 17:29:35.676831,1753867775.676831,-0.7338351011276245,0.1166380271315574,9.813265800476074,0.0988719761371612,-0.0550422854721546,-0.1554785370826721,0.3572431802749634,0.1769071221351623,0.6100063323974609,-1.3220442078734382,-8.162214307119964,160.77673913342915,0.0712763698441611,0.1137674305681077,-0.021,-0.009,-0.016,0.5
2025-07-30 17:29:35.686658,1753867775.686658,-0.7372363805770874,0.1041664630174636,9.692602157592772,0.0982438027858734,-0.0609053634107112,-0.1521171480417251,0.3584423065185547,0.1769454181194305,0.6099886298179626,-1.302337819404252,-8.162495827060527,160.65343344368395,0.0717837551558655,0.1142068019030328,-0.021,-0.009,-0.016,0.5
2025-07-30 17:29:35.697238,1753867775.697238,-0.7249717712402344,0.1024053692817688,9.675960540771484,0.0984244719147682,-0.0674631521105766,-0.1510112583637237,0.3603285551071167,0.1765415221452713,0.6114788055419922,-1.281121071588821,-8.162798923571247,160.52067721959835,0.0723300280673388,0.1146798480334799,-0.021,-0.009,-0.016,0.5
2025-07-30 17:29:35.711621,1753867775.711621,-0.7158562541007996,0.087780974805355,9.747662544250488,0.0976401641964912,-0.0612523183226585,-0.1490764021873474,0.3609552681446075,0.1750743389129638,0.6109845638275146,-1.25227794139544,-8.1632109684424,160.34020163075735,0.0730726593529539,0.115322931094402,-0.021,-0.009,-0.016,0.5
2025-07-30 17:29:35.718622,1753867775.718622,-0.7486867904663086,0.0969524756073951,9.883636474609377,0.0987323597073555,-0.0496331974864006,-0.148252323269844,0.3606297373771667,0.175975501537323,0.6110939979553223,-1.238238627738231,-8.163411530141083,160.25235563823776,0.0734341330723631,0.1156359499914286,-0.021,-0.009,-0.016,0.5
2025-07-30 17:29:35.727367,1753867775.727367,-0.7792747616767883,0.0769375637173652,9.86523723602295,0.1019589155912399,-0.0490197129547596,-0.1447803527116775,0.3606554865837097,0.1750647723674774,0.610988974571228,-1.220701916607841,-8.163662054679499,160.14262592976394,0.0738856551590751,0.1160269464539008,-0.021,-0.009,-0.016,0.5
2025-07-30 17:29:35.753896,1753867775.753896,-0.7472484111785889,0.0310853291302919,9.778119087219238,0.1024491265416145,-0.057217750698328,-0.1445093750953674,0.3627252280712127,0.1740436553955078,0.6095764636993408,-1.1675017916265271,-8.164422056749189,159.8097451426217,0.075255412080216,0.1172130902248801,-0.021,-0.009,-0.016,0.5
2025-07-30 17:29:35.757896,1753867775.757896,-0.7475824356079102,0.0895662829279899,9.737528800964355,0.0973923355340957,-0.0675382539629936,-0.1408904492855072,0.3645109534263611,0.1729814559221267,0.6084787249565125,-1.1594804878114136,-8.164536646846546,159.75955469797856,0.0754619385953545,0.1173919322775778,-0.021,-0.009,-0.016,0.5
2025-07-30 17:29:35.767282,1753867775.767282,-0.7380754351615906,0.0296267159283161,9.78215217590332,0.101005770266056,-0.0645729005336761,-0.1375045180320739,0.365750253200531,0.1726530492305755,0.6090467572212219,-1.1248053696359346,-8.17579259082326,159.66061538312053,0.0760790558322261,0.1176385585115536,-0.023,-0.002,-0.008,0.5
2025-07-30 17:29:35.780346,1753867775.780346,-0.7774865627288818,-0.0067217289470136,9.79720401763916,0.110004112124443,-0.0584723502397537,-0.133805975317955,0.3663598001003265,0.1717930138111114,0.6086224317550659,-1.0608079796816872,-8.202364606882865,159.54160269297287,0.0770694951750119,0.1178100720853426,-0.023,-0.002,-0.008,0.5
2025-07-30 17:29:35.786522,1753867775.786522,-0.7985846996307373,0.056823331862688,9.829171180725098,0.114224225282669,-0.059905257076025,-0.131041333079338,0.3675703108310699,0.1703765392303466,0.6078089475631714,-1.0305530541538042,-8.214926593669887,159.48533914722725,0.0775377278416456,0.1178911555546172,-0.023,-0.002,-0.008,0.5
2025-07-30 17:29:35.796805,1753867775.796805,-0.7996615171432495,0.0465630479156971,9.823623657226562,0.1062645018100738,-0.073993943631649,-0.1300768256187439,0.3681842982769012,0.1709397137165069,0.6084908246994019,-0.9801787900240329,-8.235842224079251,159.3916606910812,0.0783173323394803,0.118026159030135,-0.023,-0.002,-0.008,0.5
2025-07-30 17:29:35.809482,1753867775.809482,-0.7855412364006042,0.009722945280373,9.767465591430664,0.1033994704484939,-0.0789457932114601,-0.1271504014730453,0.3687996566295624,0.1709273159503936,0.6087923645973206,-0.918075836805665,-8.261627661132966,159.2761709885493,0.0792784529135323,0.1181925954966369,-0.023,-0.002,-0.008,0.5
2025-07-30 17:29:35.816724,1753867775.816724,-0.7881699800491333,-0.0313238054513931,9.7031831741333,0.1085047349333763,-0.0725854858756065,-0.1265597939491272,0.3703487515449524,0.1697293221950531,0.6089404821395874,-0.8825989466377586,-8.276357832097132,159.2101964208369,0.079827501988926,0.1182876738775517,-0.023,-0.002,-0.008,0.5
2025-07-30 17:29:35.827676,1753867775.827676,-0.7852357625961304,-0.0132858604192733,9.723315238952637,0.1093841046094894,-0.0661531910300254,-0.1273241192102432,0.3715908229351043,0.1682497411966323,0.6087477207183838,-0.8289473770327231,-8.298634215090052,159.1104233264356,0.0806578268721287,0.1184314605608668,-0.023,-0.002,-0.008,0.5
2025-07-30 17:29:35.837572,1753867775.837572,-0.8068001866340637,-0.0140818720683455,9.76939296722412,0.1076112538576126,-0.0661044940352439,-0.1225600093603134,0.3724843859672546,0.1674308180809021,0.608008623123169,-0.7804687176022937,-8.318762781549626,159.02027002990755,0.0814080945255398,0.1185613837989451,-0.023,-0.002,-0.008,0.5
2025-07-30 17:29:35.850701,1753867775.850701,-0.8150739669799805,-0.0295099038630723,9.75976848602295,0.1094613224267959,-0.0759381428360939,-0.1200051382184028,0.3722017705440521,0.1668140888214111,0.6079429984092712,-0.7161524736228335,-8.345467187293947,158.90066438315134,0.0824034685316206,0.1187337519043552,-0.023,-0.002,-0.008,0.5
2025-07-30 17:29:35.856892,1753867775.856892,-0.8105819225311279,-0.0318413265049457,9.75940990447998,0.1083234772086143,-0.0786063596606254,-0.1210508644580841,0.3733837604522705,0.1674595475196838,0.607995331287384,-0.6858239663968244,-8.35805972554667,158.8442640012653,0.0828728399667069,0.1188150325732346,-0.023,-0.002,-0.008,0.5
2025-07-30 17:29:35.871014,1753867775.871014,-0.79462730884552,-0.0548932291567325,9.77584743499756,0.1091959923505783,-0.0688535198569297,-0.11904226988554,0.3734496831893921,0.16618213057518,0.6084759831428528,-0.6166431545968101,-8.386783922634718,158.71561196522438,0.0839434992204918,0.1190004377636327,-0.023,-0.002,-0.008,0.5
2025-07-30 17:29:35.877369,1753867775.877369,-0.8342982530593872,-0.070202350616455,9.732840538024902,0.1113338097929954,-0.0576407760381698,-0.1161317601799964,0.3746975362300873,0.1655501723289489,0.6090089678764343,-0.5855122564721885,-8.39970961734678,158.65771941780685,0.0844252886544191,0.1190838688472508,-0.023,-0.002,-0.008,0.5
2025-07-30 17:29:35.887123,1753867775.887123,-0.8571698069572449,-0.0780739337205886,9.678621292114258,0.1072257235646247,-0.0578254237771034,-0.1168287098407745,0.3764804899692535,0.1656391620635986,0.608672022819519,-0.5377285353018383,-8.419549642185823,158.56885846260516,0.085164801272444,0.1192119296446165,-0.023,-0.002,-0.008,0.5
2025-07-30 17:29:35.900813,1753867775.900813,-0.8513486981391907,-0.0643523633480072,9.674965858459473,0.1087922304868698,-0.0620645135641098,-0.1119323000311851,0.3767343163490295,0.1651677787303924,0.6073561310768127,-0.470664073295544,-8.447395120926972,158.4441420946036,0.0862027073764474,0.1193916629987605,-0.023,-0.002,-0.008,0.5
2025-07-30 17:29:35.908484,1753867775.908484,-0.8278002738952637,-0.0773306116461753,9.711747169494627,0.1108995452523231,-0.0646664649248123,-0.1164549887180328,0.3764431178569793,0.1648546308279037,0.607325553894043,-0.4330860168589276,-8.462997705967336,158.3742600948808,0.0867842746176561,0.1194923725239473,-0.023,-0.002,-0.008,0.5
2025-07-30 17:29:35.917467,1753867775.917467,-0.8573344945907593,-0.0857632756233215,9.771331787109377,0.111230656504631,-0.0647145435214042,-0.1118886172771453,0.3782891929149627,0.1648174077272415,0.6082300543785095,-0.3890794895257135,-8.481269422233602,158.29242339488843,0.0874653304551106,0.1196103104082635,-0.023,-0.002,-0.008,0.5
2025-07-30 17:29:35.926706,1753867775.926706,-0.8780034184455872,-0.104547806084156,9.796310424804688,0.1094343289732933,-0.0579216107726097,-0.1116856336593627,0.3794811069965362,0.1645836681127548,0.6078670024871826,-0.3438197373974322,-8.500061483304629,158.20825613650408,0.08816578150764,0.1197316069461673,-0.023,-0.002,-0.008,0.5
2025-07-30 17:29:35.946402,1753867775.946402,-0.9058229923248292,-0.0997549146413803,9.787610054016112,0.1089960262179374,-0.0522345937788486,-0.1092314422130584,0.3792300820350647,0.1639038473367691,0.6084221005439758,-0.2473331078118875,-8.540123183832058,158.02882486034633,0.0896590323115032,0.1199901919708832,-0.023,-0.002,-0.008,0.5
2025-07-30 17:29:35.947402,1753867775.947402,-0.8893296122550964,-0.1252457052469253,9.72063446044922,0.109169878065586,-0.060914970934391,-0.1098072528839111,0.3798094987869262,0.162531316280365,0.6069967150688171,-0.2424346690509262,-8.542157038548888,158.019715482997,0.0897348417542094,0.1200033198302925,-0.023,-0.002,-0.008,0.5
2025-07-30 17:29:35.960402,1753867775.960402,-0.8848679065704346,-0.1241803765296936,9.68169403076172,0.1056492701172828,-0.0625319927930831,-0.1046125516295433,0.3812868297100067,0.1617631018161773,0.6059384346008301,-0.1787502933045801,-8.568599089643278,157.90128488944677,0.090720436812149,0.1201739945232227,-0.023,-0.002,-0.008,0.5
2025-07-30 17:29:35.966471,1753867775.966471,-0.8783703446388245,-0.1365051716566085,9.691107749938965,0.1072006374597549,-0.0585733093321323,-0.1052988097071647,0.3812810480594635,0.1609154641628265,0.6052126288414001,-0.1439381374903947,-8.583216705058371,157.85709606747326,0.0913585941903874,0.1203202838708769,-0.022,0.0,0.0,0.49
2025-07-30 17:29:35.978078,1753867775.978078,-0.8900715708732605,-0.1585613787174224,9.72485065460205,0.1061594039201736,-0.0501544550061225,-0.1003841683268547,0.3825676739215851,0.1604924350976944,0.606711745262146,-0.0744427073981982,-8.612477938262144,157.77895527266932,0.0926812695159443,0.120638297498,-0.022,0.0,0.0,0.49
2025-07-30 17:29:35.991187,1753867775.991187,-0.9283466339111328,-0.174752801656723,9.745116233825684,0.1032210513949394,-0.0493195280432701,-0.1008968502283096,0.3840751945972442,0.1602367162704467,0.6066545844078064,0.004047458125482,-8.645526428422492,157.69070078010512,0.0941751376033756,0.120997471363081,-0.022,0.0,0.0,0.49
2025-07-30 17:29:35.998499,1753867775.998499,-0.9308879971504213,-0.1707724928855896,9.72956371307373,0.1020277589559555,-0.0510175935924053,-0.1040909588336944,0.3838155567646026,0.1598604619503021,0.6072446703910828,0.0478263100875115,-8.663959628921502,157.64147575504404,0.095008360841142,0.1211978049891232,-0.022,0.0,0.0,0.49
2025-07-30 17:29:36.007383,1753867776.007383,-0.9183959364891052,-0.1638625711202621,9.677101135253906,0.1054153367877006,-0.0527796894311904,-0.0996102392673492,0.3844567239284515,0.1589373350143432,0.6074411273002625,0.101019585184065,-8.686356796985757,157.581665134565,0.0960207645684436,0.1214412193593857,-0.022,0.0,0.0,0.49
2025-07-30 17:29:36.016585,1753867776.016585,-0.9001301527023315,-0.1724385470151901,9.629640579223633,0.1027571931481361,-0.0446382127702236,-0.0998274534940719,0.3859010636806488,0.1588078141212463,0.606142520904541,0.1561157300362396,-8.709555173353953,157.51971492368537,0.0970693847616362,0.1216933413311714,-0.022,0.0,0.0,0.49
2025-07-30 17:29:36.030140,1753867776.03014,-0.9186769127845764,-0.1977350860834121,9.64849853515625,0.0997310057282447,-0.0369966849684715,-0.0970513224601745,0.3864790797233581,0.1580108851194381,0.6050975322723389,0.2372739102435326,-8.743727038097992,157.4284605102969,0.0986140319749115,0.1220647241289208,-0.022,0.0,0.0,0.49
2025-07-30 17:29:36.037246,1753867776.037246,-0.9472009539604188,-0.2020345777273178,9.6796875,0.0982968881726265,-0.0309232510626316,-0.0985794737935066,0.3874014019966125,0.158280074596405,0.6057400107383728,0.2798208217711277,-8.761641526844341,157.38062068142168,0.0994238082433876,0.1222594203505259,-0.022,0.0,0.0,0.49
2025-07-30 17:29:36.050451,1753867776.050451,-0.944278597831726,-0.2106115221977234,9.694849967956545,0.0999180376529693,-0.0317213870584964,-0.1009788438677787,0.3877571523189544,0.1578914225101471,0.6066316366195679,0.3588848459908019,-8.794931641714504,157.29172094103976,0.1009285983257838,0.1226212202139658,-0.022,0.0,0.0,0.49
2025-07-30 17:29:36.057313,1753867776.057313,-0.9362897872924804,-0.2198091298341751,9.7008695602417,0.0973195508122444,-0.0313999317586422,-0.0979607999324798,0.3889978229999542,0.1569874286651611,0.6068192720413208,0.3999699881037263,-8.812230648612966,157.2455247284963,0.1017105533931554,0.1228092273253236,-0.022,0.0,0.0,0.49
2025-07-30 17:29:36.066785,1753867776.066785,-0.933811604976654,-0.2216273248195648,9.72016143798828,0.0953057929873466,-0.0301293469965457,-0.0979553163051605,0.3892890512943268,0.1573005765676498,0.6068498492240906,0.4566835008727191,-8.836110021986682,157.18175594603082,0.1027899562238982,0.1230687504317873,-0.022,0.0,0.0,0.49
2025-07-30 17:29:36.080446,1753867776.080446,-0.9579924941062928,-0.2269974052906036,9.69174575805664,0.0933986380696296,-0.0272801406681537,-0.0981108322739601,0.3907865881919861,0.1579240411520004,0.6072081327438354,0.5384769226713484,-8.870549356869697,157.08978726577942,0.1043466937052316,0.1234430401182672,-0.022,0.0,0.0,0.49
2025-07-30 17:29:36.087747,1753867776.087747,-0.9624218344688416,-0.2437088191509246,9.679466247558594,0.0931040197610855,-0.021420681849122,-0.095404602587223,0.3922652900218963,0.1565802246332168,0.6057694554328918,0.5821915367196472,-8.888955509826562,157.04063446995167,0.1051786943316213,0.1236430797892692,-0.022,0.0,0.0,0.49
2025-07-30 17:29:36.097680,1753867776.09768,-0.960748851299286,-0.2470446825027465,9.665553092956545,0.0928195640444755,-0.020990090444684,-0.0959071964025497,0.3919583261013031,0.1562986373901367,0.6054284572601318,0.6416644247606696,-8.913996725399464,156.97376304064116,0.1063106151132771,0.1239152298977918,-0.022,0.0,0.0,0.49
2025-07-30 17:29:36.106877,1753867776.106877,-0.9595470428466796,-0.269668698310852,9.65895652770996,0.0911088064312934,-0.0203493274748325,-0.0949257463216781,0.3916499614715576,0.1565926373004913,0.6054679155349731,0.6967305919197698,-8.937182479581326,156.91184653673707,0.1073586647544939,0.1241672146905588,-0.022,0.0,0.0,0.49
2025-07-30 17:29:36.122416,1753867776.122416,-0.9732170701026917,-0.2634704113006592,9.674274444580078,0.0903440415859222,-0.0174619387835264,-0.0969260036945343,0.3931259214878082,0.1564000099897384,0.6047900319099426,0.7897685036396497,-8.976356336452428,156.80723453046488,0.1091294135650267,0.1245929595737367,-0.022,0.0,0.0,0.49
2025-07-30 17:29:36.128837,1753867776.128837,-0.9523789286613464,-0.278970330953598,9.672115325927734,0.0875253230333328,-0.0152430860325694,-0.0960524454712867,0.3940424919128418,0.1558215916156768,0.6047067046165466,0.8282141812528417,-8.992543989897039,156.76400613686425,0.1098611328893883,0.1247688883991106,-0.022,0.0,0.0,0.49
2025-07-30 17:29:36.137518,1753867776.137518,-0.976601779460907,-0.2741847932338714,9.684088706970217,0.0854990854859352,-0.0077108391560614,-0.0972342193126678,0.3946190476417541,0.1556002497673034,0.604042112827301,0.8801897910069011,-9.014428456773556,156.7055646616303,0.1108503613388168,0.1250067306882784,-0.022,0.0,0.0,0.49
2025-07-30 17:29:36.147014,1753867776.147014,-0.9806902408599854,-0.2865402400493622,9.657285690307615,0.0808675438165664,-0.0041056782938539,-0.0943870767951011,0.3943220376968384,0.1544394642114639,0.6032857298851013,0.9370460546952952,-9.038367935796478,156.6416353697574,0.1119324810837299,0.1252669070281647,-0.022,0.0,0.0,0.49
2025-07-30 17:29:36.156819,1753867776.156819,-0.9776321053504944,-0.2991559505462646,9.62601089477539,0.0826104953885078,-0.0050404444336891,-0.0955397114157676,0.3964765071868896,0.1541082561016082,0.6041508316993713,0.9957537978083258,-9.063086985089628,156.57562427087055,0.1130498392054326,0.1255355558055421,-0.022,0.0,0.0,0.49
2025-07-30 17:29:36.171788,1753867776.171788,-0.9626581072807312,-0.2888661026954651,9.631507873535156,0.0798354297876358,-0.0019161879317834,-0.0968888774514198,0.3976269066333771,0.1548167914152145,0.6035824418067932,1.1205614515311075,-9.088237458659982,156.4282254008253,0.1141007021421838,0.1250414178354207,-0.022,-0.008,0.01,0.49
2025-07-30 17:29:36.178585,1753867776.178585,-0.9699698686599731,-0.3104808628559112,9.644587516784668,0.0794964283704757,0.0020687035284936,-0.0940373018383979,0.3969714045524597,0.1551958620548248,0.6026952266693115,1.185208401069081,-9.096805127014983,156.35072694943452,0.1144294400464886,0.1246120878945127,-0.022,-0.008,0.01,0.49
2025-07-30 17:29:36.186914,1753867776.186914,-0.9726933240890504,-0.3096565008163452,9.674769401550291,0.0775577276945114,0.0080612571910023,-0.0939266011118888,0.3981876969337463,0.1546269953250885,0.6026074886322021,1.2644246673414714,-9.107303668749651,156.25576287139302,0.1148322647667168,0.1240860009691319,-0.022,-0.008,0.01,0.49
2025-07-30 17:29:36.197843,1753867776.197843,-0.9788281321525574,-0.319981187582016,9.687592506408691,0.0775137245655059,0.0115989120677113,-0.0953310430049896,0.3990712761878967,0.1546872705221176,0.6022838354110718,1.368371356696437,-9.121079736566596,156.13115208140556,0.1153608468121528,0.1233956756511192,-0.022,-0.008,0.01,0.49
2025-07-30 17:29:36.213878,1753867776.213878,-0.9796732068061828,-0.3302664756774902,9.675328254699709,0.0787053778767585,0.0118393450975418,-0.0966901630163192,0.3987787067890167,0.1549497246742248,0.6026336550712585,1.5208786558362324,-9.141291548107358,155.94832706655808,0.1161363656922966,0.1223828521506187,-0.022,-0.008,0.01,0.49
2025-07-30 17:29:36.216956,1753867776.216956,-0.9805575013160706,-0.3375381529331207,9.661389350891112,0.0744757875800132,0.0108693363144993,-0.0969438403844833,0.3990771174430847,0.1555348932743072,0.6030096411705017,1.5501533451811844,-9.145171326369068,155.91323271012834,0.1162852311854593,0.122188434614503,-0.022,-0.008,0.01,0.49
2025-07-30 17:29:36.228393,1753867776.228393,-0.9702306389808656,-0.3318078815937042,9.658723831176758,0.07448161393404,0.0158796422183513,-0.0937949270009994,0.3990798890590668,0.1543837040662765,0.6022488474845886,1.658932285736312,-9.159587813045478,155.78282904070232,0.1168383858386358,0.1214660176024963,-0.022,-0.008,0.01,0.49
2025-07-30 17:29:36.236654,1753867776.236654,-0.9785804152488708,-0.3454062938690185,9.669488906860352,0.0718296244740486,0.0163762867450714,-0.0935197100043296,0.3993882536888122,0.1540897041559219,0.6022093892097473,1.737502286597137,-9.170000705143847,155.68863970252002,0.1172379242176129,0.1209442226211738,-0.022,-0.008,0.01,0.49
2025-07-30 17:29:36.247318,1753867776.247318,-0.9876080751419068,-0.344238817691803,9.696643829345703,0.0673340037465095,0.021223958581686,-0.0975907444953918,0.3999978005886078,0.1532296538352966,0.6017851829528809,1.8389274070480293,-9.183442589116718,155.56705175717622,0.1177536837666587,0.120270643414715,-0.022,-0.008,0.01,0.49
2025-07-30 17:29:36.256587,1753867776.256587,-0.9996354579925536,-0.3424125909805298,9.70343017578125,0.0658365935087204,0.018136229366064,-0.0958007648587226,0.402152270078659,0.1528984308242797,0.6026501655578613,1.927084811979377,-9.195126101082671,155.46136908522283,0.118201975306371,0.1196851770668009,-0.022,-0.008,0.01,0.49
2025-07-30 17:29:36.267411,1753867776.267411,-0.9746742248535156,-0.3588553965091705,9.677197456359863,0.0698813274502754,0.0210997611284255,-0.0931695699691772,0.4020863473415375,0.1541758477687835,0.6021695733070374,2.006581057368618,-9.18306942979,155.3369919682153,0.1188558344070858,0.1186515896633591,-0.022,-0.008,0.01,0.49
2025-07-30 17:29:36.290558,1753867776.290558,-0.9764947891235352,-0.3699299097061157,9.672056198120115,0.067436896264553,0.0220170840620994,-0.0964875742793083,0.4023703634738922,0.1542169600725174,0.6018548011779785,2.1299218800989688,-9.1061471966077,155.06909039795582,0.1205135138834673,0.115745010374599,-0.022,-0.008,0.01,0.49
2025-07-30 17:29:36.290558,1753867776.290558,-0.9648131132125854,-0.3717434704303741,9.670014381408691,0.0657155215740203,0.0247032772749662,-0.0947028473019599,0.4035794734954834,0.1533760726451873,0.6014217138290405,2.1299218800989688,-9.1061471966077,155.06909039795582,0.1205135138834673,0.115745010374599,-0.022,-0.008,0.01,0.49
2025-07-30 17:29:36.297689,1753867776.297689,-0.972963571548462,-0.3863750696182251,9.674699783325195,0.0627405121922493,0.0306507218629121,-0.093532845377922,0.4044946134090423,0.1533732414245605,0.6017187833786011,2.167919126530401,-9.082449989263184,154.986558744938,0.1210241903503019,0.1148495889961559,-0.022,-0.008,0.01,0.49
2025-07-30 17:29:36.306900,1753867776.3069,-0.9823872447013856,-0.373485118150711,9.671067237854004,0.061041422188282,0.0294239688664674,-0.0955724641680717,0.4035794734954834,0.1533760726451873,0.6014217138290405,2.217000861748294,-9.051839874964882,154.87995110567587,0.1216838404429056,0.1136929568942879,-0.022,-0.008,0.01,0.49
2025-07-30 17:29:36.317148,1753867776.317148,-0.9614153504371644,-0.4008380174636841,9.665083885192873,0.0606891624629497,0.0305256135761737,-0.0905312523245811,0.4046897292137146,0.154451310634613,0.6002675890922546,2.271607690574476,-9.017784003378097,154.76134272553392,0.1224177468447896,0.1124061235962966,-0.022,-0.008,0.01,0.49
2025-07-30 17:29:36.327484,1753867776.327484,-0.962020993232727,-0.4105116724967956,9.675869941711426,0.0607262253761291,0.0324627123773098,-0.0938255414366722,0.4053050875663757,0.1544388830661773,0.6005691289901733,2.3266833075224,-8.983435769308104,154.64171611743504,0.1231579536785256,0.1111082431055325,-0.022,-0.008,0.01,0.49
2025-07-30 17:29:36.336720,1753867776.33672,-0.9612972140312196,-0.399583488702774,9.69052505493164,0.0604035295546054,0.0372726283967494,-0.0948680788278579,0.4053452610969543,0.1540722101926803,0.6011548042297363,2.375898437734284,-8.952742462433278,154.53481873851038,0.1238193965769408,0.1099484674935258,-0.022,-0.008,0.01,0.49
2025-07-30 17:29:36.347478,1753867776.347478,-0.9608805179595948,-0.3996455073356628,9.69561004638672,0.0605278015136718,0.0397709719836711,-0.0927736386656761,0.4062000513076782,0.1530443876981735,0.599449634552002,2.433222713152356,-8.916991839216216,154.4103079475287,0.1245898249943572,0.1085975964032818,-0.022,-0.008,0.01,0.49
2025-07-30 17:29:36.356595,1753867776.356595,-0.9657780528068542,-0.4041465818881988,9.685104370117188,0.0571566857397556,0.0399679914116859,-0.0905424430966377,0.4061612784862518,0.1528354436159134,0.5984835624694824,2.481803899535651,-8.886693895157432,154.3047875218574,0.1252427477965824,0.1074527599489816,-0.022,-0.008,0.01,0.49
2025-07-30 17:29:36.367086,1753867776.367086,-0.944333791732788,-0.4087192416191101,9.68130111694336,0.0539361201226711,0.0392331779003143,-0.0936809182167053,0.4063735902309418,0.1533063501119613,0.5969623327255249,2.515760215222951,-8.854857713715422,154.2160580946491,0.1258073500167187,0.1065485218730616,-0.019,-0.006,0.012,0.49
2025-07-30 17:29:36.377580,1753867776.37758,-0.9603740572929382,-0.4152030348777771,9.677557945251465,0.0577397756278514,0.0391261614859104,-0.0920720994472503,0.4078855216503143,0.1544738709926605,0.5980113744735718,2.5280860743229687,-8.825997166244266,154.15953952190594,0.1261880074889355,0.1060513851525489,-0.019,-0.006,0.012,0.49
2025-07-30 17:29:36.387408,1753867776.387408,-0.9351707696914672,-0.4259496033191681,9.687968254089355,0.0531271807849407,0.0434430688619613,-0.0889236479997634,0.4085180163383484,0.1538543105125427,0.5982428193092346,2.5396297881437326,-8.798967983287186,154.10660737137502,0.1265445100975853,0.1055857945608647,-0.019,-0.006,0.012,0.49
2025-07-30 17:29:36.397437,1753867776.397437,-0.9501438736915588,-0.4257599413394928,9.693410873413086,0.0534177608788013,0.0423717349767684,-0.0939190462231636,0.4093154966831207,0.153800293803215,0.5960220098495483,2.5514095737405125,-8.771386046916083,154.0525927453966,0.1269083032719305,0.1051106825275041,-0.019,-0.006,0.012,0.49
2025-07-30 17:29:36.406525,1753867776.406525,-0.9593135714530944,-0.4234569668769836,9.70836353302002,0.0536793954670429,0.0452872887253761,-0.0879657566547393,0.4087231159210205,0.1540531814098358,0.5963762402534485,2.5620837705215047,-8.746392806249082,154.00364764856025,0.1272379527293538,0.1046801620145929,-0.019,-0.006,0.012,0.49
2025-07-30 17:29:36.417493,1753867776.417493,-0.9454707503318788,-0.4260751903057098,9.69884204864502,0.0500427223742008,0.0451351664960384,-0.0923504531383514,0.4081938862800598,0.1541798710823059,0.5979719161987305,2.574966624594825,-8.716228075455875,153.9445750501171,0.1276358117853998,0.104160560113185,-0.019,-0.006,0.012,0.49
2025-07-30 17:29:36.427688,1753867776.427688,-0.9379653930664062,-0.4279682338237762,9.679489135742188,0.0535121820867061,0.0448813289403915,-0.0894926190376281,0.4091089963912964,0.1541770249605178,0.598268985748291,2.5869410363889127,-8.688190428974753,153.88966799183018,0.1280056155684736,0.1036775982554291,-0.019,-0.006,0.012,0.49
2025-07-30 17:29:36.437677,1753867776.437677,-0.9362419247627258,-0.4326990246772766,9.677085876464844,0.0509908758103847,0.0447166189551353,-0.0886023417115211,0.4094016253948211,0.1539145708084106,0.597919225692749,2.598673775653105,-8.660718649867656,153.8358690904961,0.1283679558186944,0.1032043837335769,-0.019,-0.006,0.012,0.49
2025-07-30 17:29:36.447430,1753867776.44743,-0.9307134747505188,-0.4329684972763061,9.698777198791504,0.052848931401968,0.0519588440656662,-0.0880778580904007,0.4099867939949035,0.1533896774053573,0.5972195863723755,2.61012927760027,-8.633896011780582,153.7833414236733,0.1287217341946111,0.1027423509759711,-0.019,-0.006,0.012,0.49
2025-07-30 17:29:36.457326,1753867776.457326,-0.933712601661682,-0.4317967593669891,9.715743064880373,0.048163428902626,0.0520593523979187,-0.0865494236350059,0.4117381870746612,0.1535417586565017,0.5962619185447693,2.621752802163815,-8.606679954893494,153.73004331169216,0.1290807015852575,0.1022735413915494,-0.019,-0.006,0.012,0.49
2025-07-30 17:29:36.467442,1753867776.467442,-0.9369114637374878,-0.4388681948184967,9.702153205871582,0.0479112155735492,0.050829067826271,-0.0845472365617752,0.4111156165599823,0.1532821208238601,0.5956150889396667,2.633634801518893,-8.578858688752382,153.6755599982424,0.1294476514102299,0.1017943067885423,-0.019,-0.006,0.012,0.49
2025-07-30 17:29:36.477457,1753867776.477457,-0.9266782402992249,-0.4449144899845123,9.705156326293944,0.0482145361602306,0.0558156743645668,-0.0835111364722251,0.4116908311843872,0.1536363959312439,0.5953308939933777,2.645398064891728,-8.551315438563279,153.62162113270452,0.12981093433146,0.1013198611431519,-0.019,-0.006,0.012,0.49
2025-07-30 17:29:36.493142,1753867776.493142,-0.9403934478759766,-0.4309476912021637,9.718463897705078,0.046110738068819,0.050439640879631,-0.0855972021818161,0.4114239811897278,0.1529881209135055,0.5955756902694702,2.663820904664825,-8.508179034235553,153.53714567331446,0.1303798838515038,0.100576815966908,-0.019,-0.006,0.012,0.49
2025-07-30 17:29:36.499976,1753867776.499976,-0.822826087474823,-0.5219880938529968,9.694908142089844,0.0422678664326667,0.0497555881738662,-0.0803508087992668,0.4114541709423065,0.1535006463527679,0.5965767502784729,2.671847905124735,-8.489384106762802,153.5003389399483,0.1306277803818599,0.1002530643604834,-0.019,-0.006,0.012,0.49
2025-07-30 17:29:36.508446,1753867776.508446,-1.1575130224227903,-0.2648443579673767,9.681764602661133,0.0462364852428436,0.053625363856554,-0.0847804769873619,0.4123205542564392,0.1541680544614792,0.5963231325149536,2.681796524240655,-8.46608977961387,153.4547208821209,0.1309350219440086,0.0998518084447061,-0.019,-0.006,0.012,0.49
2025-07-30 17:29:36.517378,1753867776.517378,-0.6599727869033813,-0.2992912530899048,9.704916954040527,0.0276177059859037,0.0455776751041412,-0.0802419260144233,0.413763552904129,0.1546141505241394,0.5954049825668335,2.692287856407486,-8.441524709740888,153.40661428643196,0.1312590240237344,0.0994286633783131,-0.019,-0.006,0.012,0.49
2025-07-30 17:29:36.526803,1753867776.526803,-0.924415111541748,-0.3596977591514587,9.939858436584473,0.0173994768410921,0.065186008810997,-0.0784146785736084,0.4144032895565033,0.1542665958404541,0.595981776714325,2.703358026487749,-8.41560431210185,153.35585350717236,0.1316009022592043,0.0989821721435388,-0.019,-0.006,0.012,0.49
2025-07-30 17:29:36.536767,1753867776.536767,-1.0525624752044678,-0.3972307443618774,9.651811599731444,0.0602119714021682,0.051268845796585,-0.0842401608824729,0.4144005179405212,0.155417799949646,0.596742570400238,2.7150613617940755,-8.388201381284755,153.30218943374098,0.1319623344318473,0.0985101435663794,-0.019,-0.006,0.012,0.49
2025-07-30 17:29:36.546764,1753867776.546764,-0.797264814376831,-0.3380413651466369,9.772716522216797,0.041195023804903,0.0513207167387008,-0.0791786760091781,0.4140691757202148,0.1554713398218155,0.5961263179779053,2.726803342302169,-8.360707964143655,153.24834815792315,0.1323249600778783,0.0980365563190523,-0.019,-0.006,0.012,0.49
2025-07-30 17:29:36.557157,1753867776.557157,-1.0001521110534668,-0.5173083543777466,9.74168586730957,0.0448570102453231,0.0572137869894504,-0.0821486562490463,0.4153198301792145,0.1536881774663925,0.595898449420929,2.7390107454576382,-8.332124776926513,153.1923727490167,0.1327019592947106,0.0975441972614449,-0.019,-0.006,0.012,0.49
2025-07-30 17:29:36.567076,1753867776.567076,-0.8654853105545044,-0.4166248142719269,9.56867504119873,0.0408844947814941,0.0363115034997463,-0.0801619663834571,0.4155636727809906,0.1540959626436233,0.5949980616569519,2.7397850906497263,-8.306960562720391,153.12988798033666,0.132536945086897,0.0972528653804755,-0.014,0.0,0.008,0.48
2025-07-30 17:29:36.576934,1753867776.576934,-0.8619424104690552,-0.3857206702232361,9.789148330688477,0.0344317555427551,0.0648938715457916,-0.0836574807763099,0.4167284667491913,0.1553485691547393,0.5951204299926758,2.7310302380482105,-8.283802565579984,153.05984916100326,0.131913350917574,0.0971196905681633,-0.014,0.0,0.008,0.48
2025-07-30 17:29:36.587506,1753867776.587506,-0.9629572629928588,-0.3464133143424988,9.876291275024414,0.0091801499947905,0.0538987442851066,-0.0811875164508819,0.4166495501995086,0.1555063128471374,0.5935686230659485,2.721641448407686,-8.258967702728093,152.98473884546482,0.1312446024253587,0.0969768725956483,-0.014,0.0,0.008,0.48
2025-07-30 17:29:36.597155,1753867776.597155,-0.8783178329467773,-0.5862211585044861,9.674680709838867,0.020334368571639,0.0614860951900482,-0.0847322717308998,0.4154332280158996,0.1560751646757125,0.5936563611030579,2.713072288118532,-8.236300891702905,152.91618556459898,0.130634234822895,0.0968465224498349,-0.014,0.0,0.008,0.48
2025-07-30 17:29:36.607650,1753867776.60765,-0.9041227102279664,-0.4619859158992767,9.733386039733888,0.0392371714115142,0.0479665882885456,-0.083000548183918,0.4166955053806305,0.15598726272583,0.5948801040649414,2.7037518891472128,-8.211646933201317,152.84162237440265,0.1299703576888273,0.0967047448048902,-0.014,0.0,0.008,0.48
2025-07-30 17:29:36.616798,1753867776.616798,-0.8892896771430969,-0.2783656418323517,9.855263710021973,0.0423750951886177,0.0569290965795517,-0.0838178321719169,0.4169709086418152,0.1563319563865661,0.5946003198623657,2.6956277975474365,-8.190157400641572,152.77662964297662,0.1293916916183341,0.0965811648403549,-0.014,0.0,0.008,0.48
2025-07-30 17:29:36.627531,1753867776.627531,-0.9212433099746704,-0.3795998096466064,9.727306365966797,0.0129739493131637,0.0486039482057094,-0.0787381753325462,0.4162852168083191,0.1561985313892364,0.5927119851112366,2.6860958744939625,-8.164943926827435,152.70037426015878,0.1287127479616982,0.0964361695878475,-0.014,0.0,0.008,0.48
2025-07-30 17:29:36.637450,1753867776.63745,-0.8219874501228333,-0.5649412274360657,9.687899589538574,0.0244843941181898,0.0605299919843673,-0.0832619294524192,0.4171918034553528,0.1564992815256118,0.593044102191925,2.677287029258864,-8.141643110463106,152.62990349976585,0.1280853079833112,0.0963021734642955,-0.014,0.0,0.008,0.48
2025-07-30 17:29:36.647227,1753867776.647227,-0.9029544591903688,-0.4193010330200195,9.71171760559082,0.027259113267064,0.0463766381144523,-0.0841426104307174,0.4184053242206573,0.1570816189050674,0.5937171578407288,2.668604166835459,-8.118675538954594,152.5604406018452,0.1274668415594069,0.0961700937336363,-0.014,0.0,0.008,0.48
2025-07-30 17:29:36.656528,1753867776.656528,-0.9260510206222534,-0.3383353948593139,9.88303279876709,0.0175908021628856,0.0528418868780136,-0.0853733792901039,0.4198898673057556,0.1565854400396347,0.5930042266845703,2.6603441408405444,-8.096826437995794,152.49436039528098,0.126878493099035,0.0960444459972738,-0.014,0.0,0.008,0.48
2025-07-30 17:29:36.667448,1753867776.667448,-0.810192346572876,-0.4752408862113952,9.716909408569336,0.0088241472840309,0.0428457967936992,-0.0857002362608909,0.4202082455158233,0.1554122418165207,0.5925493836402893,2.6506462169057805,-8.071173865077515,152.41677700544088,0.1261877254647279,0.0958969256153079,-0.014,0.0,0.008,0.48
2025-07-30 17:29:36.677212,1753867776.677212,-0.769451916217804,-0.4012795090675354,9.647239685058594,0.0148590859025716,0.0497930087149143,-0.0940110832452774,0.4199571907520294,0.1547324359416961,0.5931044816970825,2.641974999952364,-8.048237097715344,152.34740727127814,0.125570088529053,0.0957650230302101,-0.014,0.0,0.008,0.48
2025-07-30 17:29:36.689796,1753867776.689796,-0.7037030458450317,-0.2921554148197174,9.664424896240234,0.0117099462077021,0.0447276607155799,-0.1000909060239791,0.4181368947029114,0.1538589000701904,0.592094898223877,2.630799371743972,-8.018675758664653,152.2580022474986,0.1247740663792263,0.0955950244869032,-0.014,0.0,0.008,0.48
2025-07-30 17:29:36.697478,1753867776.697478,-0.6490292549133301,-0.1643580198287964,9.745803833007812,-0.0066340304911136,0.0488507971167564,-0.111716441810131,0.4163453578948974,0.1540735065937042,0.5924668312072754,2.6239770319530886,-8.000629569589943,152.20342353032385,0.1242881220111853,0.0954912461753159,-0.014,0.0,0.008,0.48
2025-07-30 17:29:36.707703,1753867776.707703,-0.644503653049469,-0.2065927237272262,9.772618293762209,-0.0143326940014958,0.0545492097735405,-0.1289968788623809,0.4161029160022735,0.1530901193618774,0.5929869413375854,2.614896317927714,-7.976609616427501,152.1307778196546,0.1236413172530409,0.0953531145081098,-0.014,0.0,0.008,0.48
2025-07-30 17:29:36.716617,1753867776.716617,-0.6354784965515137,-0.1495382487773895,9.788896560668944,-0.0011009012814611,0.0510888360440731,-0.1414388120174408,0.4166451394557953,0.1540830880403518,0.592462420463562,2.606979939165368,-7.955669517823322,152.06744679089294,0.1230774462362409,0.0952326941762261,-0.014,0.0,0.008,0.48
2025-07-30 17:29:36.727071,1753867776.727071,-0.6859778165817261,-0.0100428527221083,9.935257911682127,0.0041421526111662,0.0642366856336593,-0.148630678653717,0.4163223803043365,0.1538330316543579,0.5918111205101013,2.59769595875474,-7.931111892288459,151.993174949176,0.122416163138091,0.0950914705137646,-0.014,0.0,0.008,0.48
2025-07-30 17:29:36.736563,1753867776.736563,-0.7156589031219482,-0.0524528250098228,9.886935234069824,0.0058967340737581,0.0628145784139633,-0.1630044728517532,0.416338175535202,0.1538014709949493,0.5921214818954468,2.589266332369629,-7.908814170943922,151.9257379395189,0.1218157343127769,0.094963242893861,-0.014,0.0,0.008,0.48
2025-07-30 17:29:36.746663,1753867776.746663,-0.7385444045066833,-0.0179868526756763,9.611456871032717,-0.0089242430403828,0.0329129695892334,-0.1666235923767089,0.4167354106903076,0.1524705439805984,0.5932183861732483,2.5802965679128724,-7.885087697284758,151.85397982537987,0.1211768323152189,0.0948267989407318,-0.014,0.0,0.008,0.48
2025-07-30 17:29:36.757156,1753867776.757156,-0.6293691992759705,-0.0509634390473365,9.65204620361328,-0.0065065445378422,0.0579611994326114,-0.1673209369182586,0.4165259301662445,0.1508484482765197,0.5939788222312927,2.5709780745639144,-7.860438779461662,151.77943188016215,0.1205130909155888,0.0946850502832427,-0.014,0.0,0.008,0.48
2025-07-30 17:29:36.767301,1753867776.767301,-0.8875834941864014,0.0456218682229518,9.815719604492188,-0.0176116414368152,0.0362936817109584,-0.1637624651193618,0.4158015251159668,0.1505060940980911,0.5911243557929993,2.558660695846983,-7.8458991908924,151.70499101020155,0.1197997287864582,0.0944653609011657,-0.007,0.005,0.0,0.49
2025-07-30 17:29:36.777725,1753867776.777725,-0.8858097791671753,0.4048743844032287,9.811280250549316,-0.040246557444334,0.0436593107879161,-0.1761567890644073,0.415517508983612,0.1504649817943573,0.5914391279220581,2.5431323007821924,-7.839030862376212,151.62645316507962,0.1190045763234149,0.0941678666178244,-0.007,0.005,0.0,0.49
2025-07-30 17:29:36.787445,1753867776.787445,0.5756087303161621,-0.2929942905902862,9.54771900177002,-0.0278438907116651,0.0025729504413902,-0.1702281534671783,0.4156939089298248,0.1489667147397995,0.5940923094749451,2.528652368063443,-7.832626276816035,151.55321811995768,0.1182631117922787,0.0938904588632547,-0.007,0.005,0.0,0.49
2025-07-30 17:29:36.797338,1753867776.797338,-1.3231351375579834,0.0487325489521026,9.772361755371094,-0.0009727464057505,0.033462781459093,-0.1656702756881714,0.4166392087936401,0.1494763791561126,0.5953904986381531,2.513914936970412,-7.82610779774532,151.47868072727474,0.1175084617087601,0.0936081179334278,-0.007,0.005,0.0,0.49
2025-07-30 17:29:36.807383,1753867776.807383,-0.0562637709081172,-0.0321553573012352,9.362833976745604,0.0167125966399908,0.0158974304795265,-0.1782276630401611,0.4169074296951294,0.1495490670204162,0.5947653651237488,2.498950907308013,-7.819489092385331,151.40299726873818,0.1167422083391451,0.0933214358093744,-0.007,0.005,0.0,0.49
2025-07-30 17:29:36.817460,1753867776.81746,-0.6273946166038513,-0.842480480670929,10.519948959350586,0.0043269139714539,0.105091892182827,-0.1593368053436279,0.4186745882034302,0.1496695876121521,0.5941181182861328,2.483939284842643,-7.812849336362706,151.32707310044546,0.1159735179157105,0.093033841898446,-0.007,0.005,0.0,0.49
2025-07-30 17:29:36.827687,1753867776.827687,-0.2361445873975753,-0.3151357769966125,9.89026927947998,0.0380703881382942,0.0688766613602638,-0.1633620709180832,0.419526606798172,0.1497929543256759,0.5931737422943115,2.4687042603394485,-7.806110767901282,151.2500190333723,0.1151933878888987,0.0927419680327081,-0.007,0.005,0.0,0.49
2025-07-30 17:29:36.837650,1753867776.83765,-0.7973965406417847,-0.4502176344394684,9.383931159973145,-0.0184871293604373,0.0430445782840251,-0.1452463567256927,0.4195423722267151,0.1497614085674286,0.593484103679657,2.4538624092160197,-7.799546103048362,151.17495351629913,0.1144333908365521,0.0924576266152596,-0.007,0.005,0.0,0.49
2025-07-30 17:29:36.847510,1753867776.84751,-0.1336754709482193,-0.068751111626625,10.024809837341309,-0.0836149752140045,-0.0346737615764141,-0.150794580578804,0.419568121433258,0.148850679397583,0.593379020690918,2.4391739916066446,-7.7930493030182735,151.10066401873814,0.1136812505547283,0.0921762246898264,-0.007,0.005,0.0,0.49
2025-07-30 17:29:36.857333,1753867776.857333,-0.2145502269268036,-0.6291624903678894,10.109172821044922,-0.0444509014487266,0.0673327594995498,-0.1425669938325882,0.4198765158653259,0.1485566794872284,0.5933396220207214,2.424540980544012,-7.786577009729763,151.02665475044546,0.1129319474400379,0.0918958842476211,-0.007,0.005,0.0,0.49
2025-07-30 17:29:36.867464,1753867776.867464,-0.8633652925491333,0.0474280714988708,9.326119422912598,0.005610809661448,-0.0546462126076221,-0.1299432069063186,0.4198980927467346,0.1493727564811706,0.594375729560852,2.4094487344497293,-7.779901593256252,150.9503228126406,0.112159128574685,0.0916067457425086,-0.007,0.005,0.0,0.49
2025-07-30 17:29:36.880275,1753867776.880275,-0.0351286865770816,-0.2713321149349212,10.078641891479492,-0.0060002403333783,0.0534293986856937,-0.1252219080924987,0.4192813634872436,0.149960771203041,0.5944546461105347,2.3903643756286503,-7.771460434633156,150.85379999678693,0.1111818881799845,0.0912411260099595,-0.007,0.005,0.0,0.49
