time,timestamp,acce_x,acce_y,acce_z,gyro_x,gyro_y,gyro_z,magX,magY,magZ,roll,pitch,yaw,gt_px,gt_py,dvl_vx,dvl_vy,dvl_vz,depth
2025-07-30 17:23:56.951055,1753867436.951055,-0.6349831223487854,-0.0437190867960453,10.321125030517578,0.0833752751350402,-0.0086037358269095,-0.3229530751705169,0.5101144909858704,-0.2637962698936462,0.5370945334434509,-0.4241826019312019,-9.903838818863187,160.34296452612892,0.0,0.0,0.1,0.033,-0.006,0.48
2025-07-30 17:23:56.961853,1753867436.961853,-0.776769757270813,-0.4238336384296417,9.013845443725586,0.1184460297226905,-0.0378030017018318,-0.3383519947528839,0.5104787945747375,-0.2644884884357452,0.5379511117935181,-0.3749976698137233,-9.878163665779065,160.13694462284718,-0.0016473739092058,-0.0006163404530156,0.1,0.033,-0.006,0.48
2025-07-30 17:23:56.970871,1753867436.970871,-0.3795072138309479,0.2962184250354767,9.56576442718506,0.0604745522141456,-0.0772842392325401,-0.3566618263721466,0.5083600878715515,-0.265947163105011,0.5365655422210693,-0.3339208123968212,-9.856721029650696,159.96488684360833,-0.0030231802846044,-0.0011310779512461,0.1,0.033,-0.006,0.48
2025-07-30 17:23:56.980568,1753867436.980568,-0.5033177733421326,-0.2803889214992523,10.043778419494627,0.0671138763427734,-0.0156105272471904,-0.3773806989192962,0.507827877998352,-0.267819344997406,0.5366746783256531,-0.2897510274756008,-9.833663846470358,159.7798737831916,-0.0045025795258326,-0.0016845731798849,0.1,0.033,-0.006,0.48
2025-07-30 17:23:56.990409,1753867436.990409,-0.8480060696601868,-0.1073486506938934,9.367157936096191,0.0726696848869323,-0.0682144686579704,-0.3821521699428558,0.507659912109375,-0.2703837156295776,0.537640392780304,-0.2449252986595035,-9.810264252328158,159.59211318421046,-0.00600394860237,-0.0022462880957311,0.1,0.033,-0.006,0.48
2025-07-30 17:23:57.001385,1753867437.001385,-0.3086165487766266,-0.1508494615554809,10.01327896118164,0.1150801703333854,-0.0117340292781591,-0.4079097807407379,0.5064247846603394,-0.2717821300029754,0.5359311699867249,-0.1949291246720373,-9.784165620786233,159.38269524896248,-0.0076784938145164,-0.0028727942877266,0.1,0.033,-0.006,0.48
2025-07-30 17:23:57.011594,1753867437.011594,-0.8740769028663635,0.0012533935951068,10.051385879516602,0.1049809530377388,-0.038217008113861,-0.4205492734909057,0.5064117908477783,-0.2729017734527588,0.5348600149154663,-0.1484266121246664,-9.75989072445013,159.18791114080346,-0.0092360241919109,-0.0034555211192155,0.1,0.033,-0.006,0.48
2025-07-30 17:23:57.021530,1753867437.02153,-0.5808780789375305,-0.2432425767183303,9.47035312652588,0.0470520071685314,-0.0785660967230796,-0.4309448003768921,0.5065092444419861,-0.2742422819137573,0.535961389541626,-0.1031686553778396,-9.736265501892664,158.99834007766896,-0.0107518700804569,-0.0040226523190161,0.1,0.033,-0.006,0.48
2025-07-30 17:23:57.031598,1753867437.031598,-0.5857543349266052,-0.411719262599945,9.83837890625,0.1085042729973793,-0.0173677913844585,-0.4587376713752746,0.506199300289154,-0.2765227258205414,0.534133791923523,-0.0573079687276077,-9.712325646746066,158.80624437231052,-0.0122879034832357,-0.0045973363770951,0.1,0.033,-0.006,0.48
2025-07-30 17:23:57.041367,1753867437.041367,-0.5716094970703125,-0.1790085285902023,9.526220321655272,0.1131583899259567,-0.0752102062106132,-0.4733100533485412,0.5071185827255249,-0.278252363204956,0.5332896709442139,-0.0128102118589491,-9.689097258084796,158.61985754261158,-0.0137782876421185,-0.0051549414493376,0.1,0.033,-0.006,0.48
2025-07-30 17:23:57.051211,1753867437.051211,-0.5073534250259399,0.1022448986768722,9.465456008911133,0.0557966157793998,-0.0175168644636869,-0.4922067821025848,0.5056797862052917,-0.2804252803325653,0.5330666899681091,0.0320296349548854,-9.66569029417024,158.4320378078666,-0.0152801295793497,-0.0057168332789812,0.1,0.033,-0.006,0.48
2025-07-30 17:23:57.061803,1753867437.061803,-0.6972777843475342,-0.3815736472606659,10.123319625854492,0.0684108361601829,-0.0171876046806573,-0.5186467170715332,0.5045393109321594,-0.2820129990577698,0.5332196354866028,0.080276263222739,-9.64050494749514,158.2299481584254,-0.0168960764393714,-0.0063214157688393,0.106,0.051,-0.008,0.47
2025-07-30 17:23:57.071501,1753867437.071501,-0.8952526450157166,-0.0557493083178997,9.71233367919922,0.0674961879849433,-0.0642372667789459,-0.5250884294509888,0.502176821231842,-0.2838794887065887,0.5327345728874207,0.1244503921432635,-9.61744549669254,158.04491690238905,-0.0183756211761976,-0.0068749654324927,0.106,0.051,-0.008,0.47
2025-07-30 17:23:57.081113,1753867437.081113,-0.723687469959259,-0.3142297565937042,9.976153373718262,0.0830574408173561,-0.041810318827629,-0.5445300936698914,0.5009745955467224,-0.2859165966510772,0.5312657356262207,0.1682335611264442,-9.5945901318937,157.86152325211953,-0.019842071309197,-0.0074236159448304,0.106,0.051,-0.008,0.47
2025-07-30 17:23:57.091849,1753867437.091849,-0.7409159541130066,-0.1657999455928802,9.892569541931152,0.0962010025978088,-0.028647830709815,-0.5700799822807312,0.5004653334617615,-0.2875482738018036,0.5320305228233337,0.2171361332891743,-9.569062374256736,157.6566860641139,-0.021479988004528,-0.0080364181218959,0.106,0.051,-0.008,0.47
2025-07-30 17:23:57.101553,1753867437.101553,-1.0114530324935913,-0.0948117449879646,9.463823318481444,0.077490396797657,-0.0344970934092998,-0.5856531858444214,0.5002658367156982,-0.2900495529174804,0.5323755145072937,0.2613374122053477,-9.545988750814988,157.47154108545482,-0.0229604420888422,-0.0085903080043906,0.106,0.051,-0.008,0.47
2025-07-30 17:23:57.111388,1753867437.111388,-0.6734936833381653,-0.3257178366184234,9.760639190673828,0.0716731548309326,-0.0370439104735851,-0.6122146248817444,0.5000361204147339,-0.2930633425712585,0.5317193865776062,0.3061359910257959,-9.522603329311938,157.2838942090964,-0.0244609018178917,-0.0091516827013954,0.106,0.051,-0.008,0.47
2025-07-30 17:23:57.121877,1753867437.121877,-0.7500572204589844,-0.1248511523008346,9.94338321685791,0.0851786658167839,-0.0310480073094367,-0.6331433653831482,0.4983119368553161,-0.2947017550468445,0.5321915745735168,0.3539134673688371,-9.49766288584135,157.0837696865754,-0.0260611351533212,-0.0097503862096747,0.106,0.051,-0.008,0.47
2025-07-30 17:23:57.131052,1753867437.131052,-1.1824871301651,0.129036471247673,9.838955879211426,0.0386427752673625,-0.0626140981912612,-0.6428213119506836,0.4954171180725097,-0.2984403967857361,0.5318155884742737,0.3957059986710434,-9.475846658944988,156.9087141790022,-0.0274609119285027,-0.0102740918765636,0.106,0.051,-0.008,0.47
2025-07-30 17:23:57.141597,1753867437.141597,-0.8840183615684509,0.1384242624044418,9.803422927856444,0.048067383468151,-0.0334855020046234,-0.6654437184333801,0.4940170347690582,-0.3004043698310852,0.5325586795806885,0.4437386849731841,-9.45077299266639,156.70752066382784,-0.0290696931303192,-0.0108759934419517,0.106,0.051,-0.008,0.47
2025-07-30 17:23:57.151871,1753867437.151871,-0.1229126825928688,-0.0649504363536834,9.648199081420898,0.0378409549593925,-0.0345504991710186,-0.6511595845222473,0.493642508983612,-0.3019830286502838,0.5298701524734497,0.4905365894732145,-9.426343898016334,156.51149925353383,-0.0306371172083827,-0.0114624218544346,0.106,0.051,-0.008,0.47
2025-07-30 17:23:57.161406,1753867437.161406,-1.1453425884246826,-0.3126344978809356,9.479074478149414,0.1069237887859344,-0.0191965755075216,-0.6629893779754639,0.4937026500701904,-0.304108053445816,0.5296249985694885,0.5339689805126119,-9.403671643715311,156.3295748995496,-0.0320918185718376,-0.0120066767393419,0.106,0.051,-0.008,0.47
2025-07-30 17:23:57.170789,1753867437.170789,-0.3093880414962768,0.0791254937648773,9.262234687805176,0.1063354760408401,-0.0815394893288612,-0.6742934584617615,0.4935261011123657,-0.3063688278198242,0.5306257009506226,0.5767085036630504,-9.3813610751654,156.15055274689666,-0.0335233133873995,-0.0125422492394177,0.106,0.051,-0.008,0.47
2025-07-30 17:23:57.180822,1753867437.180822,-0.9063745737075806,-0.3146086931228637,10.77532958984375,0.0666569098830223,0.0591599382460117,-0.6729826927185059,0.4925979375839233,-0.3074856698513031,0.5292574763298035,0.6224084623390409,-9.35750512204257,155.9591302794646,-0.0350539634530496,-0.0131149192019557,0.106,0.051,-0.008,0.47
2025-07-30 17:23:57.191253,1753867437.191253,-1.94140899181366,-0.1689556241035461,10.028614044189451,0.0629289448261261,0.0194937530905008,-0.6734817624092102,0.492868959903717,-0.3085641860961914,0.5278715491294861,0.6699220407243752,-9.33270243662452,155.76011114083627,-0.036645357930896,-0.013710315783097,0.106,0.051,-0.008,0.47
2025-07-30 17:23:57.201229,1753867437.201229,-0.6034784317016602,-0.4706274271011352,9.80618667602539,0.0804085358977317,-0.0130785107612609,-0.6100878119468689,0.4947250187397003,-0.3094805777072906,0.5283606052398682,0.7153635314417884,-9.308981407026398,155.56977131277227,-0.0381673510084607,-0.0142797468622653,0.106,0.051,-0.008,0.47
2025-07-30 17:23:57.211161,1753867437.211161,-1.6659382581710815,0.2293609529733657,10.134013175964355,0.0465310998260974,-0.0244125984609127,-0.6076337099075317,0.493844211101532,-0.3106920719146728,0.5279234647750854,0.7606030261915742,-9.285365821863552,155.38027758102123,-0.0396825785407148,-0.0148466467132538,0.106,0.051,-0.008,0.47
2025-07-30 17:23:57.221174,1753867437.221174,-0.4253678619861603,-0.8844617605209351,8.866296768188477,0.0597380958497524,-0.069365955889225,-0.6015273332595825,0.4930049777030945,-0.3128458261489868,0.5276916027069092,0.8062128468820104,-9.2615569219027,155.1892326726965,-0.0412102095727048,-0.0154181871492385,0.105,0.068,-0.008,0.48
2025-07-30 17:23:57.231687,1753867437.231687,-1.365868091583252,-0.0883819386363029,9.467597007751465,0.1184612214565277,-0.0217608269304037,-0.5531708598136902,0.492693543434143,-0.3145506680011749,0.5262444615364075,0.8541000092074732,-9.236559220969946,154.98864871077984,-0.0428141166719857,-0.0160182651416369,0.105,0.068,-0.008,0.48
2025-07-30 17:23:57.241677,1753867437.241677,-1.6987433433532717,-0.1805149614810943,10.395410537719728,0.1302855610847473,-0.0260075870901346,-0.541762113571167,0.4915143847465515,-0.3163473010063171,0.5254313349723816,0.8996044879147919,-9.212805310848998,154.7980450462312,-0.0443382194357225,-0.0165884855285172,0.105,0.068,-0.008,0.48
2025-07-30 17:23:57.251433,1753867437.251433,-1.1481703519821167,-0.0921768695116043,10.077725410461426,-0.0042666867375373,-0.0053917537443339,-0.4907340705394745,0.4897442460060119,-0.3184666931629181,0.5245920419692993,0.9440425147930231,-9.189608101993858,154.6119084063022,-0.0458266030301317,-0.0171453421193087,0.105,0.068,-0.008,0.48
2025-07-30 17:23:57.261696,1753867437.261696,-0.6376798748970032,-0.4155054688453674,10.147387504577637,0.0610025115311145,0.0542615465819835,-0.4919598698616028,0.4900539815425873,-0.3193362653255462,0.5241721868515015,0.9907915493008856,-9.165204518094274,154.41609169672904,-0.047392390282717,-0.0177311581378771,0.105,0.068,-0.008,0.48
2025-07-30 17:23:57.271489,1753867437.271489,-1.4686387777328491,-0.6415146589279175,9.67403793334961,0.1989826112985611,-0.0038005029782652,-0.4926029443740845,0.4892061352729797,-0.3211864531040191,0.5239753127098083,1.0353979061521397,-9.141919438876403,154.22924997653934,-0.0488864118315516,-0.018290124085485,0.105,0.068,-0.008,0.48
2025-07-30 17:23:57.281872,1753867437.281872,-1.0021449327468872,0.503862202167511,9.145133018493652,0.1336127966642379,-0.1223701238632202,-0.4708579480648041,0.4886752665042877,-0.3236342072486877,0.5237040519714355,1.0826931985724575,-9.117230701477125,154.03114516779746,-0.0504704951555948,-0.0188827853071417,0.105,0.068,-0.008,0.48
2025-07-30 17:23:57.291648,1753867437.291648,-0.685601532459259,-0.1140789240598678,9.998980522155762,0.0279484614729881,0.0619800053536891,-0.4605206549167633,0.4883710741996765,-0.3250670135021209,0.5226022601127625,1.1272224494360688,-9.09398587255444,153.8446264198562,-0.0519619341575637,-0.0194407850332401,0.105,0.068,-0.008,0.48
2025-07-30 17:23:57.301728,1753867437.301728,-1.4468392133712769,-0.4419240057468414,9.994657516479492,0.0980768427252769,0.067167542874813,-0.4394129514694214,0.4871489405632019,-0.3253457844257355,0.5219642519950867,1.173137436077598,-9.07001767212954,153.65230326925237,-0.0534997862553185,-0.0200161495290018,0.105,0.068,-0.008,0.48
2025-07-30 17:23:57.311096,1753867437.311096,-0.9990006685256958,-0.1719285100698471,9.2843599319458,0.0963203012943267,0.0206634905189275,-0.4282119572162628,0.4863083064556122,-0.3269239068031311,0.5221127867698669,1.2158085412390016,-9.047742818630288,153.47356769760864,-0.0549289895152107,-0.0205508646775973,0.105,0.068,-0.008,0.48
2025-07-30 17:23:57.321682,1753867437.321682,-0.9804823398590088,-0.5089309811592102,10.524365425109863,0.1403342485427856,0.0429642014205455,-0.4292077422142029,0.4863196909427643,-0.3283787071704864,0.5213169455528259,1.2640280195112064,-9.022571644594336,153.2715917707901,-0.0565440270277443,-0.021155106948614,0.105,0.068,-0.008,0.48
2025-07-30 17:23:57.331673,1753867437.331673,-0.8504815101623535,0.2187133580446243,10.509957313537598,0.1524057388305664,0.0097752502188086,-0.411775141954422,0.4854632914066314,-0.3299252986907959,0.5211551189422607,1.3095368422178288,-8.998815466851124,153.08096991062183,-0.0580682752870791,-0.0217253817705088,0.105,0.068,-0.008,0.48
2025-07-30 17:23:57.340424,1753867437.340424,-1.2908576726913452,-0.2283894419670105,9.515369415283203,0.0709409490227699,-0.0059832227416336,-0.4062766432762146,0.4846599996089935,-0.3307189047336578,0.5226501822471619,1.349398465829488,-8.978007198051108,152.914002355975,-0.0594033792689162,-0.0222248910733999,0.105,0.068,-0.008,0.48
2025-07-30 17:23:57.351704,1753867437.351704,-1.0282375812530518,-0.316985160112381,9.53557014465332,0.0826015174388885,-0.0074984147213399,-0.3944163620471954,0.4837318658828735,-0.3318357765674591,0.521281898021698,1.4007782035952203,-8.951186328818102,152.69878911587432,-0.0611242648290496,-0.0228687348175514,0.105,0.068,-0.008,0.48
2025-07-30 17:23:57.361736,1753867437.361736,-0.7674999237060547,-0.3583177030086517,9.889509201049805,0.1549722105264663,0.0834812819957733,-0.3832550346851349,0.4840028882026672,-0.332914263010025,0.5198960304260254,1.4464749042717329,-8.92733207641197,152.50738029515696,-0.0626548057730011,-0.0234413639538286,0.105,0.068,-0.008,0.48
2025-07-30 17:23:57.370929,1753867437.370929,-1.1421014070510864,0.1308076381683349,9.92715549468994,0.1169616878032684,0.0324332006275653,-0.3823712766170501,0.4839799106121063,-0.3331547379493713,0.5192402601242065,1.4883488855608855,-8.905473331598156,152.3319836197157,-0.0640573105906465,-0.0239660902772416,0.105,0.068,-0.008,0.48
2025-07-30 17:23:57.381376,1753867437.381376,-1.0804307460784912,-0.3759615421295166,9.906272888183594,0.0954138487577438,-0.0262678824365139,-0.3713167607784271,0.4828466475009918,-0.3344704508781433,0.5197386145591736,1.535935225934559,-8.880632663507185,152.1326597044585,-0.0656511421197607,-0.0245623986448777,0.105,0.068,-0.008,0.48
2025-07-30 17:23:57.390824,1753867437.390824,-0.8805398941040039,-0.2910604178905487,10.087444305419922,0.1502248793840408,0.0017666781786829,-0.3743944764137268,0.4820303618907928,-0.3363837599754333,0.5201624631881714,1.5789712270374832,-8.858167329737752,151.9523957007657,-0.0670925670098912,-0.0251016863347011,0.105,0.068,-0.008,0.48
2025-07-30 17:23:57.400740,1753867437.40074,-0.9912909865379332,-0.0200204756110906,10.116085052490234,0.123939149081707,0.0157805159687995,-0.3619106113910675,0.4813820719718933,-0.3357326090335846,0.5196206569671631,1.6241379597989298,-8.834589727247828,151.76320674564343,-0.0686053574908776,-0.0256676743991948,0.105,0.068,-0.008,0.48
2025-07-30 17:23:57.411183,1753867437.411183,-0.922302544116974,-0.2870786488056183,9.972686767578123,0.0691220760345459,0.0350623317062854,-0.3544666469097137,0.4810535013675689,-0.3368302881717682,0.5182435512542725,1.671706924175388,-8.809758129645912,151.56395561286476,-0.0701986070375995,-0.0262637650267724,0.104,0.075,-0.008,0.48
2025-07-30 17:23:57.421889,1753867437.421889,-0.9477575421333312,-0.5054467916488647,9.434473991394045,0.1392311751842498,0.0359119027853012,-0.3480612933635711,0.4810834527015686,-0.3394678235054016,0.5169973373413086,1.7204726603600478,-8.784301802110265,151.35969158687752,-0.0718319406215912,-0.0268748525008773,0.104,0.075,-0.008,0.48
2025-07-30 17:23:57.431754,1753867437.431754,-0.9098296165466307,-0.0109129967167973,9.605134963989258,0.1682396978139877,0.0430954843759536,-0.3462159633636474,0.4808094501495361,-0.340388149023056,0.516896665096283,1.7654080751585663,-8.7608449505059,151.17147154850068,-0.07333698346198,-0.0274379419008426,0.104,0.075,-0.008,0.48
2025-07-30 17:23:57.441211,1753867437.441211,-1.02533757686615,-0.0228314772248268,9.993948936462402,0.1002520620822906,0.0231260601431131,-0.337492823600769,0.4799086451530456,-0.3398412466049194,0.5172903537750244,1.8084842582550509,-8.738358641230526,150.99103923532627,-0.0747797541863927,-0.0279777331145512,0.104,0.075,-0.008,0.48
2025-07-30 17:23:57.451708,1753867437.451708,-1.005145788192749,-0.4111180901527405,9.901844024658203,0.0958084240555763,0.0366714969277381,-0.33197021484375,0.4796274602413177,-0.3410335779190063,0.5168443322181702,1.8562986585921744,-8.713398922970695,150.7907600500384,-0.0763812242344059,-0.0285768993204547,0.104,0.075,-0.008,0.48
2025-07-30 17:23:57.461559,1753867437.461559,-0.9414997100830078,-0.3834734857082367,9.68575382232666,0.1434649676084518,0.054377231746912,-0.3295552730560303,0.479968786239624,-0.3419662714004516,0.5170451998710632,1.9011699994009617,-8.689975518794723,150.60280839705115,-0.0778841210147232,-0.0291391858039544,0.104,0.075,-0.008,0.48
2025-07-30 17:23:57.471333,1753867437.471333,-1.006627917289734,-0.1574447453022003,9.942594528198242,0.1393765360116958,0.047365978360176,-0.3296117186546325,0.479994535446167,-0.3428770303726196,0.516940176486969,1.9456905622659653,-8.666735225116568,150.41632604034913,-0.0793752690254959,-0.0296970766600236,0.104,0.075,-0.008,0.48
2025-07-30 17:23:57.481676,1753867437.481676,-0.8719482421875,-0.106578841805458,9.979631423950195,0.105628952383995,0.0461168177425861,-0.3237252235412597,0.4800202846527099,-0.3437877297401428,0.51683509349823,1.9928034067155227,-8.642141727852373,150.2189854476318,-0.0809532415344199,-0.0302874516110663,0.104,0.075,-0.008,0.48
2025-07-30 17:23:57.491002,1753867437.491002,-0.9069997072219848,-0.356228232383728,9.829899787902832,0.1160317361354827,0.0551117025315761,-0.3215828239917755,0.478522777557373,-0.3444112241268158,0.5164768099784851,2.035283375907558,-8.619966649732733,150.0410504832519,-0.0823760429879968,-0.0308197716190186,0.104,0.075,-0.008,0.48
2025-07-30 17:23:57.501556,1753867437.501556,-1.0073535442352295,-0.2909489572048187,9.765079498291016,0.1415506899356842,0.0373831093311309,-0.3121379911899566,0.4781914055347442,-0.3443576991558075,0.5158604979515076,2.083356244203259,-8.594872007948194,149.8396886585959,-0.0839861700240954,-0.0314221767082919,0.104,0.075,-0.008,0.48
2025-07-30 17:23:57.511018,1753867437.511018,-0.9605103135108948,-0.2149829417467117,9.898011207580566,0.1288406103849411,0.0365831777453422,-0.3100312948226928,0.4772790372371673,-0.3455060720443725,0.5148026347160339,2.1264563192959143,-8.572373226750367,149.65915626951352,-0.0854297409742975,-0.0319622673145809,0.104,0.075,-0.008,0.48
2025-07-30 17:23:57.521586,1753867437.521586,-0.8763874769210815,-0.2820983529090881,10.008851051330566,0.1151269897818565,0.0523646920919418,-0.3030928671360016,0.4773521423339844,-0.3465114533901214,0.5156286358833313,2.1745932615813466,-8.547245137537434,149.457526059468,-0.0870420140704678,-0.0325654753203199,0.104,0.075,-0.008,0.48
2025-07-30 17:23:57.531739,1753867437.531739,-0.9392526149749756,-0.336987167596817,9.892348289489746,0.1252268254756927,0.0446131415665149,-0.3012959063053131,0.4786014556884765,-0.3477189838886261,0.5157812237739563,2.220840564169618,-8.523103464009342,149.2638109439623,-0.0885909965814753,-0.0331450040946999,0.104,0.075,-0.008,0.48
2025-07-30 17:23:57.541492,1753867437.541492,-0.946840763092041,-0.3021804988384247,9.902376174926758,0.1332104355096817,0.0285603832453489,-0.3006182909011841,0.4798421561717987,-0.348622977733612,0.5159687995910645,2.265265559049938,-8.499913058020995,149.07772889089222,-0.0900789436890904,-0.0337016973804475,0.104,0.075,-0.008,0.48
2025-07-30 17:23:57.551699,1753867437.551699,-0.9199998378753662,-0.2458677589893341,9.82485008239746,0.123830072581768,0.0296093598008155,-0.2944260239601135,0.4786214232444763,-0.3494773507118225,0.5149503946304321,2.3117582975988755,-8.475643263834986,148.88298572287735,-0.0916361467013892,-0.0342843017331534,0.104,0.075,-0.008,0.48
2025-07-30 17:23:57.561587,1753867437.561587,-0.9524834156036376,-0.2979065179824829,9.685068130493164,0.1056451424956321,0.0345450043678283,-0.2925745546817779,0.4770995080471039,-0.3497657179832458,0.5143167972564697,2.3567990543805117,-8.452131422390718,148.69432444072442,-0.0931447178100314,-0.0348487111822232,0.104,0.075,-0.008,0.48
2025-07-30 17:23:57.571209,1753867437.571209,-0.9303210973739624,-0.3764239251613617,9.679722785949709,0.119270883500576,0.0408118665218353,-0.2915246486663818,0.4768484532833099,-0.3504455089569092,0.5148718953132629,2.4006267493565563,-8.42925281446367,148.51074428535372,-0.0946126592729111,-0.0353979196534608,0.104,0.075,-0.008,0.48
2025-07-30 17:23:57.580972,1753867437.580972,-0.8933060169219971,-0.3132881820201874,9.771932601928713,0.1359374523162841,0.0558343231678009,-0.285948246717453,0.4759906232357025,-0.351416528224945,0.5150904655456543,2.445097356229566,-8.406038598441553,148.32447117827746,-0.0961021340843059,-0.0359551845068619,0.104,0.075,-0.008,0.48
2025-07-30 17:23:57.591684,1753867437.591684,-0.897965669631958,-0.2900922298431396,9.866291046142578,0.1224775165319442,0.0610855109989643,-0.285542219877243,0.47622150182724,-0.3521283864974975,0.5131188035011292,2.492699842748167,-8.372525006265137,148.15821640841477,-0.0978524287291837,-0.0360819615099594,0.104,0.075,-0.008,0.48
2025-07-30 17:23:57.601066,1753867437.601066,-0.9354498386383056,-0.3371434807777405,9.881896018981934,0.115298330783844,0.0513085685670375,-0.2785939574241638,0.4767737090587616,-0.3520145714282989,0.5121789574623108,2.534359922675092,-8.342959788388672,148.01361561435954,-0.0993884608040629,-0.0361801581466125,0.104,0.075,-0.008,0.48
2025-07-30 17:23:57.611264,1753867437.611264,-0.923332929611206,-0.3533880710601806,9.83600616455078,0.1204060316085815,0.0446252487599849,-0.2775539457798004,0.4755917191505432,-0.3526600301265716,0.512126624584198,2.5796428023659344,-8.310823551336753,147.8564401991446,-0.1010580676739978,-0.0362868940552186,0.102,0.074,-0.003,0.48
2025-07-30 17:23:57.621708,1753867437.621708,-0.9179818630218506,-0.3263992965221405,9.801356315612791,0.1148708760738372,0.051320195198059,-0.2765617072582245,0.4744327366352081,-0.3530649840831756,0.5127299427986145,2.6260182388529087,-8.277911951400828,147.69547255452088,-0.1027679577667548,-0.0363962052205914,0.102,0.074,-0.003,0.48
2025-07-30 17:23:57.631339,1753867437.631339,-0.9012229442596436,-0.3695727586746216,9.72079086303711,0.1102301627397537,0.0595974437892437,-0.2748818099498749,0.4735907018184662,-0.3540675044059753,0.5132588744163513,2.668784638403824,-8.247561603472244,147.5470317607252,-0.1043447805081545,-0.0364970095542611,0.102,0.074,-0.003,0.48
2025-07-30 17:23:57.641573,1753867437.641573,-0.92220139503479,-0.4242981672286987,9.71430492401123,0.1197510659694671,0.0609635077416896,-0.2723472714424133,0.4742218554019928,-0.3541114926338196,0.5138707756996155,2.7142273786336357,-8.215311917006094,147.38930147473434,-0.1060202815318163,-0.0366041222688477,0.102,0.074,-0.003,0.48
2025-07-30 17:23:57.651132,1753867437.651132,-0.919356107711792,-0.3725969195365906,9.900537490844728,0.1273677349090576,0.0515075214207172,-0.2689283788204193,0.4747037589550018,-0.3541435599327087,0.5113440752029419,2.7566740571066126,-8.18518846790597,147.24197042249045,-0.1075853159657622,-0.0367041729905566,0.102,0.074,-0.003,0.48
2025-07-30 17:23:57.660889,1753867437.660889,-0.9195721745491028,-0.3265650272369385,9.922213554382324,0.1170197874307632,0.0434122085571289,-0.265768438577652,0.4744053483009338,-0.3547286987304687,0.5109680891036987,2.79999838052532,-8.154442174008517,147.0915930929405,-0.10918270969401,-0.0368062924020519,0.102,0.074,-0.003,0.48
2025-07-30 17:23:57.671649,1753867437.671649,-0.8912033438682556,-0.4021177589893341,9.803750038146973,0.1057619899511337,0.0374909155070781,-0.2604974210262298,0.4727112948894501,-0.3558546006679535,0.5124413371086121,2.847777625453836,-8.120534322925122,146.9257528744834,-0.1109443590439979,-0.0369189124729215,0.102,0.074,-0.003,0.48
2025-07-30 17:23:57.681289,1753867437.681289,-0.8998024463653564,-0.4582697451114654,9.79253387451172,0.1087404936552047,0.0436264537274837,-0.2623742818832397,0.4726811051368713,-0.3563671112060547,0.5114402770996094,2.8905831961301933,-8.090156176133448,146.7771761189744,-0.1125226260482313,-0.0370198091365334,0.102,0.074,-0.003,0.48
2025-07-30 17:23:57.692064,1753867437.692064,-0.9093612432479858,-0.4273694157600403,9.777213096618652,0.1155853420495987,0.0491807721555233,-0.2564758360385895,0.4729923009872436,-0.3578123450279236,0.510640025138855,2.9384291378398686,-8.056200991850737,146.6111043981406,-0.1142867345484496,-0.0371325864178451,0.102,0.074,-0.003,0.48
2025-07-30 17:23:57.701029,1753867437.701029,-0.9139597415924072,-0.3857517540454864,9.667452812194824,0.1131504923105239,0.045223630964756,-0.2566056549549103,0.4736076593399048,-0.3578247427940368,0.5109415054321289,2.978237588080326,-8.02794983374571,146.4729305510195,-0.1157544959288365,-0.0372264185931756,0.102,0.074,-0.003,0.48
2025-07-30 17:23:57.711446,1753867437.711446,-0.9185155034065248,-0.4121365845203399,9.659136772155762,0.1111698076128959,0.0422394946217536,-0.2525323033332824,0.4727340638637543,-0.3587642014026642,0.5108497142791748,3.02449339383284,-7.995123133040301,146.31237814081746,-0.1174599751648311,-0.0373354477779141,0.102,0.074,-0.003,0.48
2025-07-30 17:23:57.721727,1753867437.721727,-0.8964506983757019,-0.4479999244213104,9.688634872436523,0.1103610247373581,0.0428596697747707,-0.252075731754303,0.4721760153770447,-0.3597255945205688,0.5110638737678528,3.0701446938386576,-7.962725436411218,146.15392395056932,-0.1191431659122292,-0.0374430520870578,0.102,0.074,-0.003,0.48
2025-07-30 17:23:57.731144,1753867437.731144,-0.8771224617958069,-0.4340486526489258,9.7225923538208,0.1119465306401252,0.0495259687304496,-0.2482879161834716,0.4724757969379425,-0.3597160279750824,0.5110594630241394,3.111960399588287,-7.933049774403019,146.00878298430183,-0.1206849360043127,-0.0375416155480759,0.102,0.074,-0.003,0.48
2025-07-30 17:23:57.740993,1753867437.740993,-0.8918099999427795,-0.440215915441513,9.784271240234377,0.1057594642043113,0.0609295256435871,-0.2446809709072113,0.4718992412090301,-0.359494686126709,0.5117239952087402,3.155694431805544,-7.902012719424064,145.85698356872354,-0.1222974359411189,-0.0376447006808587,0.102,0.074,-0.003,0.48
2025-07-30 17:23:57.751868,1753867437.751868,-0.9112831950187684,-0.4515129923820495,9.754789352416992,0.1056558266282081,0.0661258995532989,-0.245709627866745,0.4712852239608764,-0.3600578904151916,0.5110421180725098,3.203983960043881,-7.867742731799882,145.68937217335267,-0.124077899742076,-0.0377585235363809,0.102,0.074,-0.003,0.48
2025-07-30 17:23:57.761849,1753867437.761849,-0.9140251278877258,-0.4659540951251983,9.693323135375977,0.1061301305890083,0.053012765944004,-0.2439373582601547,0.4709395170211792,-0.3605484366416931,0.509735107421875,3.248303441784646,-7.8362901965158365,145.53554068135674,-0.125711985553127,-0.0378629886274893,0.102,0.074,-0.003,0.48
2025-07-30 17:23:57.771025,1753867437.771025,-0.8885101675987244,-0.4594309628009796,9.671610832214355,0.1127469837665557,0.047714564949274,-0.2399684339761734,0.4706167578697204,-0.3607984483242035,0.5090837478637695,3.2890488229985304,-7.807374119658538,145.39411477703908,-0.1272142921391318,-0.0379590292352214,0.102,0.074,-0.003,0.48
2025-07-30 17:23:57.781690,1753867437.78169,-0.8751789927482605,-0.4413649439811706,9.68598175048828,0.1043956577777862,0.0496786385774612,-0.2334195524454116,0.4703399538993835,-0.3605675995349884,0.5097439289093018,3.335966502857736,-7.773985621117374,145.23075772170637,-0.128949858457243,-0.0380585269073224,0.102,0.074,-0.003,0.48
2025-07-30 17:23:57.791419,1753867437.791419,-0.880192220211029,-0.4993816912174225,9.720484733581545,0.1012514978647232,0.05811183527112,-0.2300592809915542,0.4700271487236023,-0.3616968095302582,0.5086771845817566,3.3685767188894213,-7.748622119921549,145.1053338137425,-0.1302892863776826,-0.0378678890158993,0.102,0.074,-0.003,0.48
2025-07-30 17:23:57.800268,1753867437.800268,-0.9116765260696412,-0.5159652829170227,9.755288124084473,0.1039643511176109,0.0567526295781135,-0.228585347533226,0.4703685045242309,-0.3626295030117035,0.5088780522346497,3.3982365362740867,-7.725553373214291,144.99125759289612,-0.1315075299943933,-0.0376944990254523,0.102,0.074,-0.003,0.48
2025-07-30 17:23:57.811105,1753867437.811105,-0.9156258702278136,-0.5004649758338928,9.78854751586914,0.108294665813446,0.049094583839178,-0.2302340716123581,0.4710154235363006,-0.3627049922943115,0.5098003149032593,3.4345603228671773,-7.697301539378062,144.8515507212175,-0.1329994886459889,-0.0374821517635426,0.102,0.067,0.004,0.48
2025-07-30 17:23:57.821743,1753867437.821743,-0.8991566300392151,-0.476872831583023,9.74736213684082,0.100101388990879,0.0421549044549465,-0.2266401946544647,0.4713079929351806,-0.3629674613475799,0.5094504952430725,3.470216833493241,-7.669568697957311,144.714410295569,-0.1344640396882633,-0.0372737053676446,0.102,0.067,0.004,0.48
2025-07-30 17:23:57.831360,1753867437.83136,-0.8877810835838318,-0.5120490193367004,9.672260284423828,0.0941070392727851,0.0415667295455932,-0.2246041595935821,0.470695436000824,-0.3641062676906585,0.5083881616592407,3.5024514570644447,-7.644497324228882,144.5904309739933,-0.1357880405711209,-0.0370852631732579,0.102,0.067,0.004,0.48
2025-07-30 17:23:57.840739,1753867437.840739,-0.8941428065299988,-0.5317676067352295,9.625744819641112,0.0961138606071472,0.0442790128290653,-0.223038911819458,0.4695535898208618,-0.3651183843612671,0.5089215636253357,3.5338877468739005,-7.62004687675562,144.4695221668896,-0.1370792507932459,-0.0369014880029978,0.102,0.067,0.004,0.48
2025-07-30 17:23:57.851686,1753867437.851686,-0.8852795958518982,-0.5272079706192017,9.668103218078612,0.0958490893244743,0.0457078665494918,-0.2208800017833709,0.4683788120746612,-0.3654918074607849,0.5092145800590515,3.570579933731421,-7.591508509382221,144.32839837111533,-0.1385863410710654,-0.036686987089314,0.102,0.067,0.004,0.48
2025-07-30 17:23:57.861619,1753867437.861619,-0.8962084650993347,-0.5163066983222961,9.696985244750977,0.0947099402546882,0.0475900955498218,-0.2209368646144867,0.4680560827255249,-0.3657418191432953,0.5085632801055908,3.6038734083880266,-7.565613584814857,144.20034654536016,-0.1399538330705104,-0.0364923548979628,0.102,0.067,0.004,0.48
2025-07-30 17:23:57.871904,1753867437.871904,-0.890824019908905,-0.537202775478363,9.690361976623535,0.0914672464132309,0.0395858399569988,-0.2169655412435531,0.4680818319320678,-0.3666525483131408,0.5084581971168518,3.638346403197125,-7.538801255690306,144.0677581036285,-0.1413697725326597,-0.0362908272835777,0.102,0.067,0.004,0.48
2025-07-30 17:23:57.881510,1753867437.88151,-0.8766766786575317,-0.5498322248458862,9.680438041687012,0.0897712782025337,0.0401199832558631,-0.2141554206609726,0.4683829843997955,-0.3672186136245727,0.5080733895301819,3.6705442666551753,-7.513758473160814,143.9439201671036,-0.1426922635352433,-0.0361025999871989,0.102,0.067,0.004,0.48
2025-07-30 17:23:57.891486,1753867437.891486,-0.8698066473007202,-0.5588858723640442,9.650605201721191,0.0867924988269805,0.0482060797512531,-0.2133634537458419,0.468407392501831,-0.3675537109375,0.5083487033843994,3.7039815852328166,-7.4877516699889135,143.81531509549765,-0.1440656637618474,-0.0359071268905996,0.102,0.067,0.004,0.48
2025-07-30 17:23:57.901656,1753867437.901656,-0.8952068090438843,-0.5593578815460205,9.622255325317385,0.0841906368732452,0.0558670312166214,-0.2141342312097549,0.4680832028388977,-0.3672281801700592,0.5080778002738953,3.738069397986696,-7.461238926905395,143.6842081232109,-0.145465782304604,-0.0357078510336009,0.102,0.067,0.004,0.48
2025-07-30 17:23:57.911174,1753867437.911174,-0.8969325423240662,-0.5554395914077759,9.597526550292969,0.0844638720154762,0.0517669841647148,-0.2054335176944732,0.4677532613277435,-0.3677502572536468,0.5070810914039612,3.769972381406624,-7.436425495515199,143.56150434068013,-0.1467761614415116,-0.0355213475929805,0.102,0.067,0.004,0.48
2025-07-30 17:23:57.920968,1753867437.920968,-0.8724231123924255,-0.5536512732505798,9.640127182006836,0.0844048783183097,0.0466471314430236,-0.2097444683313369,0.4677274823188782,-0.3668395280838012,0.5071861743927002,3.802799961585652,-7.410892933316966,143.43524441676396,-0.1481245173496582,-0.0353294390002937,0.102,0.067,0.004,0.48
2025-07-30 17:23:57.931643,1753867437.931643,-0.845483660697937,-0.6011112332344055,9.635339736938477,0.080009326338768,0.0423273406922817,-0.2069244235754013,0.4668525159358978,-0.3672033548355102,0.5074747800827026,3.8385803378103858,-7.3830637519867555,143.29762758496614,-0.1495941560319862,-0.0351202684915432,0.102,0.067,0.004,0.48
2025-07-30 17:23:57.940383,1753867437.940383,-0.8597102761268616,-0.5978543162345886,9.67906379699707,0.0797484815120697,0.0397583171725273,-0.206480786204338,0.4672168493270874,-0.3678956031799316,0.5083314180374146,3.8678749514621984,-7.360279052625456,143.18495599386316,-0.1507973993164099,-0.034949013466087,0.102,0.067,0.004,0.48
2025-07-30 17:23:57.956716,1753867437.956716,-0.8759488463401794,-0.5827903747558594,9.722908020019531,0.0796799734234809,0.0444033220410347,-0.2050025463104248,0.4666501879692077,-0.3685534298419952,0.5085805654525757,3.9226203495425938,-7.317699298835145,142.97439677022575,-0.1530460049261737,-0.0346289742720802,0.102,0.067,0.004,0.48
2025-07-30 17:23:57.961684,1753867437.961684,-0.8811661005020142,-0.581420361995697,9.703264236450195,0.074506863951683,0.0415227226912975,-0.202697217464447,0.4666042327880859,-0.3690344095230102,0.5072690844535828,3.939271881668264,-7.304748107264645,142.91035241581983,-0.1537299478668015,-0.0345316301462297,0.102,0.067,0.004,0.48
2025-07-30 17:23:57.973921,1753867437.973921,-0.8691484928131104,-0.5994203686714172,9.624213218688965,0.0722395852208137,0.0369112342596054,-0.20346000790596,0.4653821587562561,-0.3693131506443023,0.506631076335907,3.980288176618697,-7.272846544729371,142.75259743505296,-0.1554146460177188,-0.0342918506864511,0.102,0.067,0.004,0.48
2025-07-30 17:23:57.984557,1753867437.984557,-0.8424166440963745,-0.6143136620521545,9.5949068069458,0.072131760418415,0.0319705195724964,-0.197154015302658,0.46572345495224,-0.37024587392807,0.5068319439888,4.00947242258218,-7.248679774686832,142.62007585125167,-0.1565929194873817,-0.0341425569454839,0.102,0.067,0.004,0.48
2025-07-30 17:23:57.991402,1753867437.991402,-0.8449121117591858,-0.5804553627967834,9.631718635559082,0.0722316280007362,0.0309740677475929,-0.1985858678817749,0.4662770628929138,-0.3707076609134674,0.5055115818977356,4.018884967372556,-7.238286756124281,142.54144188313,-0.1569367580387134,-0.0341321434203265,0.102,0.067,0.004,0.48
2025-07-30 17:23:58.000328,1753867438.000328,-0.8496474623680115,-0.5878603458404541,9.6537446975708,0.0665556564927101,0.0389372035861015,-0.1972815245389938,0.4654236733913421,-0.3702554404735565,0.5068363547325134,4.031159306084048,-7.224733839998773,142.43890001156933,-0.1573851374021166,-0.0341185637627727,0.102,0.067,0.004,0.48
2025-07-30 17:23:58.016920,1753867438.01692,-0.8626722693443298,-0.6245824098587036,9.654207229614258,0.0658512711524963,0.0419626496732234,-0.1953589469194412,0.4657793939113617,-0.3706441223621368,0.5077279806137085,4.05397497369296,-7.199541539483096,142.24829412130384,-0.1582185895952297,-0.0340933217550139,0.102,0.067,0.004,0.48
2025-07-30 17:23:58.031789,1753867438.031789,-0.858553946018219,-0.6288167834281921,9.630105018615724,0.0640635341405868,0.0387144237756729,-0.1950826793909073,0.4660819768905639,-0.3717857599258423,0.506962776184082,4.074421276578778,-7.176965412605581,142.0774822988759,-0.1589654893254213,-0.0340707010828982,0.102,0.067,0.004,0.48
2025-07-30 17:23:58.031789,1753867438.031789,-0.8488117456436157,-0.6217731833457947,9.592175483703612,0.0638486668467521,0.0315457880496978,-0.1969200074672699,0.4649099707603454,-0.3733103573322296,0.5064949989318848,4.074421276578778,-7.176965412605581,142.0774822988759,-0.1589654893254213,-0.0340707010828982,0.102,0.067,0.004,0.48
2025-07-30 17:23:58.101505,1753867438.101505,-0.8402581214904785,-0.6026396751403809,9.56758975982666,0.0605388022959232,0.0316284224390983,-0.1969256848096847,0.4643577635288238,-0.3734241724014282,0.5074349641799927,4.170287602672612,-7.071113007245933,141.27659903107883,-0.1624674688027777,-0.0339646398188341,0.09,0.06,0.01,0.48
2025-07-30 17:23:58.203518,1753867438.203518,-0.8313048481941223,-0.6551279425621033,9.618072509765623,0.0403002947568893,0.036029253154993,-0.1903862208127975,0.4615849256515503,-0.3750793635845184,0.5047817826271057,4.244965907989751,-6.938514072332186,140.1148856497437,-0.1673022279448164,-0.0334752928742935,0.09,0.06,0.01,0.48
2025-07-30 17:23:58.218809,1753867438.218809,-0.7979817390441895,-0.6503350138664246,9.66077709197998,0.014394324272871,0.0347768627107143,-0.1872247010469436,0.4564696252346039,-0.3809684514999389,0.5067139863967896,4.220872933496182,-6.930629099167383,139.94623482905325,-0.1678711643327038,-0.0332221994792644,0.09,0.06,0.01,0.48
2025-07-30 17:23:58.221593,1753867438.221593,-0.8122521638870239,-0.6634353995323181,9.665477752685549,0.0092874402180314,0.0367061756551265,-0.1858066916465759,0.4558772444725036,-0.380715548992157,0.5070682168006897,4.216486347963143,-6.929193489412251,139.9155287304612,-0.1679747500534704,-0.0331761189994366,0.09,0.06,0.01,0.48
2025-07-30 17:23:58.235109,1753867438.235109,-0.8001115322113037,-0.6800758838653564,9.644343376159668,0.0052239033393561,0.0341594442725181,-0.1848790943622589,0.4535033106803894,-0.381127268075943,0.5073789358139038,4.195189788876608,-6.9222237067088,139.76645281753127,-0.1684776513205745,-0.0329524015649999,0.09,0.06,0.01,0.48
2025-07-30 17:23:58.241694,1753867438.241694,-0.7862036824226379,-0.6641148924827576,9.61631679534912,0.0025047790259122,0.0312765873968601,-0.1878752410411834,0.4535033106803894,-0.381127268075943,0.5073789358139038,4.184814426554352,-6.91882813371685,139.69382528160472,-0.1687226572314978,-0.0328434098057841,0.09,0.06,0.01,0.48
2025-07-30 17:23:58.251420,1753867438.25142,-0.792299747467041,-0.6741394400596619,9.640301704406738,0.0016347066266462,0.0283754207193851,-0.1854282021522522,0.4540970623493194,-0.3819557726383209,0.5066443085670471,4.169489739542725,-6.913812781798474,139.58655247300962,-0.1690845374997987,-0.0326824260690285,0.09,0.06,0.01,0.48
2025-07-30 17:23:58.262780,1753867438.26278,-0.7859875559806824,-0.6671683192253113,9.657953262329102,-0.0024778204970061,0.0263653621077537,-0.1808767765760421,0.4535462260246277,-0.3826451599597931,0.5072038769721985,4.151590652371991,-6.907954898951615,139.46125886338248,-0.169507210175774,-0.032494398611432,0.067,0.047,0.012,0.48
2025-07-30 17:23:58.271804,1753867438.271804,-0.7909203171730042,-0.6743835210800171,9.688082695007324,-0.0055666090920567,0.0311033520847558,-0.1848696023225784,0.4529538452625274,-0.3823922574520111,0.5075581073760986,4.137371909336493,-6.903301492320479,139.36172766258522,-0.1698429744586388,-0.0323450326645722,0.067,0.047,0.012,0.48
2025-07-30 17:23:58.283548,1753867438.283548,-0.7844259142875671,-0.685772180557251,9.685258865356444,-0.0068023856729269,0.0268835667520761,-0.183980643749237,0.4529208838939667,-0.3817535638809204,0.5073177814483643,4.118867633393495,-6.897245547701288,139.23219773157143,-0.1702799381850684,-0.0321506477818663,0.067,0.047,0.012,0.48
2025-07-30 17:23:58.291885,1753867438.291885,-0.7735013365745544,-0.6586599946022034,9.675593376159668,-0.0065015866421163,0.0257875099778175,-0.1834918558597564,0.4517547190189361,-0.3824305534362793,0.5075758099555969,4.105731919054731,-6.892946586811701,139.1402477316169,-0.1705901276085542,-0.0320126589030329,0.067,0.047,0.012,0.48
2025-07-30 17:23:58.301645,1753867438.301645,-0.7708254456520081,-0.657581090927124,9.6576509475708,-0.0125419031828641,0.0233708024024963,-0.1817375868558883,0.4508797228336334,-0.3827944099903106,0.5078644156455994,4.090353512617633,-6.887913653991125,139.03259888704525,-0.1709532764182672,-0.0318511108510752,0.067,0.047,0.012,0.48
2025-07-30 17:23:58.315157,1753867438.315157,-0.7699909806251526,-0.6643093824386597,9.64137077331543,-0.0147201279178261,0.0262242220342159,-0.1806123852729797,0.450021892786026,-0.3837653994560241,0.5080829858779907,4.069063715416822,-6.880946084268371,138.88357030731515,-0.17145601800883,-0.0316274644493213,0.067,0.047,0.012,0.48
2025-07-30 17:23:58.320781,1753867438.320781,-0.7664786577224731,-0.6591463685035706,9.65021514892578,-0.0172960665076971,0.0272714458405971,-0.178666666150093,0.4498010277748108,-0.3839327096939087,0.5096391439437866,4.06020226417602,-6.878045973065681,138.82154014891074,-0.1716652741163201,-0.0315343761185294,0.067,0.047,0.012,0.48
2025-07-30 17:23:58.333522,1753867438.333522,-0.7744321823120117,-0.6599660515785217,9.66344928741455,-0.0210769847035408,0.0273800138384103,-0.1793622225522995,0.4491870701313019,-0.3844959139823913,0.5089573264122009,4.040126976783234,-6.871475879264682,138.6810131377983,-0.1721393360258656,-0.031323487975856,0.067,0.047,0.012,0.48
2025-07-30 17:23:58.340500,1753867438.3405,-0.7598039507865906,-0.6440104246139526,9.687216758728027,-0.0217148531228303,0.0245780069380998,-0.1794208884239196,0.4488657116889953,-0.38532155752182,0.5079255700111389,4.029132150596631,-6.867877572652263,138.60404935484098,-0.1723989700821639,-0.0312079888336449,0.067,0.047,0.012,0.48
2025-07-30 17:23:58.357224,1753867438.357224,-0.7589631080627441,-0.6613965034484863,9.689481735229492,-0.0251239072531461,0.0239641591906547,-0.178385704755783,0.4474456906318664,-0.3855271637439728,0.5094994902610779,4.002781457592008,-6.859253709821591,138.4195945046448,-0.1730212206930373,-0.0309311784150853,0.067,0.047,0.012,0.48
2025-07-30 17:23:58.365757,1753867438.365757,-0.7519705295562744,-0.6599173545837402,9.691164016723633,-0.0230883974581956,0.0237669870257377,-0.1774471551179886,0.4474844634532928,-0.385318249464035,0.5104655623435974,3.989336574811549,-6.854853566536828,138.32548032560825,-0.1733387108828321,-0.0307899417641445,0.067,0.047,0.012,0.48
2025-07-30 17:23:58.372644,1753867438.372644,-0.7637642621994019,-0.6643970608711243,9.693886756896973,-0.0287949219346046,0.0236187744885683,-0.1768444925546646,0.446807324886322,-0.3857552409172058,0.5085422992706299,3.9784852508664135,-6.851302224292523,138.24952105833663,-0.1735949562480853,-0.0306759500933125,0.067,0.047,0.012,0.48
2025-07-30 17:23:58.381370,1753867438.38137,-0.7602361440658569,-0.6605150103569031,9.692220687866213,-0.0303825847804546,0.0258806683123111,-0.176257774233818,0.4453341364860534,-0.386713832616806,0.5084593296051025,3.9645874446883576,-6.846900790102818,138.15335839676894,-0.1739100564531335,-0.0305279344673928,0.067,0.047,0.012,0.48
2025-07-30 17:23:58.391024,1753867438.391024,-0.7596865892410278,-0.656866192817688,9.70983600616455,-0.0304217766970396,0.0209162384271621,-0.1755919456481933,0.4447431862354278,-0.3870365619659424,0.5084331631660461,3.9322289940928,-6.853261852904259,138.05628304498228,-0.1731646187423963,-0.0299548582783264,0.067,0.047,0.012,0.48
2025-07-30 17:23:58.403936,1753867438.403936,-0.7541328072547913,-0.6447950005531311,9.715997695922852,-0.0326926931738853,0.0187854822725057,-0.174731820821762,0.4445223212242126,-0.3872038722038269,0.5099893808364868,3.8889512046417223,-6.861769452357851,137.92644967662903,-0.1721676335437724,-0.0291883978887414,0.067,0.047,0.012,0.48
2025-07-30 17:23:58.411759,1753867438.411759,-0.7481657862663269,-0.6397243738174438,9.729905128479004,-0.0339428558945655,0.0166915711015462,-0.1683954149484634,0.4439872503280639,-0.3879248201847076,0.5108592510223389,3.862730087360743,-6.866924030858319,137.8477863247861,-0.1715635808379366,-0.0287240153955169,0.067,0.047,0.012,0.48
2025-07-30 17:23:58.423411,1753867438.423411,-0.750198245048523,-0.6379071474075317,9.734663009643556,-0.0375328138470649,0.0173212625086307,-0.1707607358694076,0.4439556896686554,-0.3878617286682129,0.510238528251648,3.823674911091206,-6.87460154397775,137.73062079597747,-0.1706638714682056,-0.0280323385331231,0.048,0.027,0.007,0.48
2025-07-30 17:23:58.430679,1753867438.430679,-0.7477859854698181,-0.6320222020149231,9.738759994506836,-0.038480270653963,0.0166062824428081,-0.167922705411911,0.4427737295627594,-0.3885071575641632,0.5101861953735352,3.7993133738392655,-6.879390564018794,137.65753618422167,-0.1701026576824746,-0.0276008896636258,0.048,0.027,0.007,0.48
2025-07-30 17:23:58.441320,1753867438.44132,-0.750957727432251,-0.6329278349876404,9.72488498687744,-0.0390600301325321,0.0164804719388484,-0.168503537774086,0.4425786435604095,-0.3895851969718933,0.5116373896598816,3.76364731613576,-6.8864018401694205,137.55053801111114,-0.1692810230270388,-0.0269692349319696,0.048,0.027,0.007,0.48
2025-07-30 17:23:58.454242,1753867438.454242,-0.7605908513069153,-0.6330662369728088,9.701854705810549,-0.0398620255291461,0.0126347560435533,-0.1672082245349884,0.4405618011951446,-0.3909611999988556,0.5124593377113342,3.7203351640111775,-6.894916194678343,137.4206015547374,-0.1682832462196634,-0.0262021659709105,0.048,0.027,0.007,0.48
2025-07-30 17:23:58.461708,1753867438.461708,-0.7260183095932007,-0.6311845779418945,9.707914352416992,-0.0405624695122242,0.0147294802591204,-0.1691434979438781,0.439378410577774,-0.3910310268402099,0.512787401676178,3.6953103472473754,-6.899835602996705,137.34552710444598,-0.1677067525440798,-0.0257589702566802,0.048,0.027,0.007,0.48
2025-07-30 17:23:58.471237,1753867438.471237,-0.7438971400260925,-0.6297730207443237,9.739099502563477,-0.0421617701649665,0.0113524766638875,-0.1662061065435409,0.4393468499183655,-0.3909679055213928,0.5121666789054871,3.663371440921369,-6.906114191285385,137.24971038546798,-0.1669709798239121,-0.025193324300728,0.048,0.027,0.007,0.48
2025-07-30 17:23:58.481357,1753867438.481357,-0.7587092518806458,-0.6267139911651611,9.753708839416504,-0.0418759323656559,0.0120214447379112,-0.1654030233621597,0.4390083253383636,-0.3911864459514618,0.5112050175666809,3.629450687379197,-6.912782373462922,137.14794812484146,-0.166189551529245,-0.0245925793388269,0.048,0.027,0.007,0.48
2025-07-30 17:23:58.496301,1753867438.496301,-0.7432814836502075,-0.624441385269165,9.75641632080078,-0.0427724383771419,0.0135396011173725,-0.1617163717746734,0.4378263354301452,-0.3918318748474121,0.5111526846885681,3.579361896386434,-6.922628887720838,136.99768175186315,-0.1650356621122913,-0.0237054944219424,0.048,0.027,0.007,0.48
2025-07-30 17:23:58.502474,1753867438.502474,-0.7437148094177246,-0.6168618202209473,9.751710891723633,-0.0423401296138763,0.0095807574689388,-0.1605338007211685,0.4375982880592346,-0.3922712206840515,0.5123635530471802,3.5586707721441098,-6.926696373595947,136.9356083791362,-0.1645590031869133,-0.0233390494775755,0.048,0.027,0.007,0.48
2025-07-30 17:23:58.510742,1753867438.510742,-0.7460541129112244,-0.5923494696617126,9.74915885925293,-0.0424460172653198,0.0089418077841401,-0.1622824519872665,0.4373314380645752,-0.392919510602951,0.5126082897186279,3.5309584746593536,-6.932144090078916,136.85247148668194,-0.1639205983431678,-0.0228482578129394,0.048,0.027,0.007,0.48
2025-07-30 17:23:58.521833,1753867438.521833,-0.7418131232261658,-0.5926038026809692,9.760680198669434,-0.0446814857423305,0.0082578193396329,-0.154520645737648,0.4361322820186615,-0.3929578065872192,0.5126259922981262,3.493783655849348,-6.939451960286865,136.7409470302519,-0.1630642065406937,-0.0221898825477222,0.048,0.027,0.007,0.48
2025-07-30 17:23:58.532541,1753867438.532541,-0.7447136044502258,-0.6054275035858154,9.764657020568848,-0.0447963699698448,0.0083727529272437,-0.1531340926885604,0.4343020021915436,-0.3929521441459656,0.5120317935943604,3.457892242938198,-6.946507537032916,136.63327279151846,-0.1622373804046092,-0.0215542367194218,0.048,0.027,0.007,0.48
2025-07-30 17:23:58.543045,1753867438.543045,-0.7442219853401184,-0.5902237892150879,9.784046173095703,-0.0409824028611183,0.0061448737978935,-0.1563438922166824,0.4346835017204284,-0.3942514955997467,0.5128183960914612,3.4226848869694027,-6.953428641049589,136.52765072361208,-0.1614263128055292,-0.0209307057093039,0.048,0.027,0.007,0.48
2025-07-30 17:23:58.551332,1753867438.551332,-0.7377170324325562,-0.5846978425979614,9.7938871383667,-0.0439095497131347,0.0032465585973113,-0.1538596302270889,0.4335173368453979,-0.3949284851551056,0.5130764245986938,3.3949086589292867,-6.9588889250773605,136.44432203949174,-0.160786435201316,-0.0204387818186695,0.048,0.027,0.007,0.48
2025-07-30 17:23:58.561161,1753867438.561161,-0.7423517107963562,-0.591700553894043,9.794516563415527,-0.0424789413809776,0.0027867935132235,-0.1523509621620178,0.4320026040077209,-0.3949447870254516,0.5127881765365601,3.3619636454882995,-6.965365295102359,136.34548699916877,-0.1600274849132876,-0.0198553174560683,0.048,0.027,0.007,0.48
2025-07-30 17:23:58.572535,1753867438.572535,-0.7470016479492188,-0.5838600397109985,9.803720474243164,-0.0400051288306713,0.0046684816479682,-0.1489553153514862,0.4320026040077209,-0.3949447870254516,0.5127881765365601,3.323840257063137,-6.972859636256304,136.23111683389328,-0.1591492410273737,-0.0191801427876004,0.048,0.027,0.007,0.48
2025-07-30 17:23:58.580958,1753867438.580958,-0.7385347485542297,-0.5835293531417847,9.801664352416992,-0.0416894294321537,0.0011266415240243,-0.1492955386638641,0.4316784143447876,-0.3946192562580108,0.5125172734260559,3.2956085238160795,-6.978409464040788,136.1464216341521,-0.158498870004828,-0.0186801517867278,0.048,0.027,0.007,0.48
2025-07-30 17:23:58.592521,1753867438.592521,-0.7414618730545044,-0.568044900894165,9.800081253051758,-0.0408129915595054,0.0018468057969585,-0.1468237787485122,0.4314202070236206,-0.3955710828304291,0.5127270221710205,3.2697252345561663,-6.994396358111844,136.07005914733955,-0.1580450080776001,-0.0185003346802062,0.048,0.027,0.007,0.48
2025-07-30 17:23:58.601429,1753867438.601429,-0.7448868155479431,-0.5613800883293152,9.804179191589355,-0.0368766598403453,0.0020933006890118,-0.1420633345842361,0.4312092959880829,-0.396617591381073,0.5138677954673767,3.2500751197785096,-7.0069009766877,136.01212958811465,-0.1577052485769663,-0.0183732187196924,0.048,0.027,0.007,0.48
2025-07-30 17:23:58.618216,1753867438.618216,-0.743283212184906,-0.5644258856773376,9.799076080322266,-0.038323912769556,-0.0009126052027568,-0.1436158716678619,0.4300431311130523,-0.3972946107387543,0.5141257643699646,3.21304478009768,-7.030465738455382,135.90296222293983,-0.1570649770131297,-0.0181336706432591,0.048,0.027,0.007,0.48
2025-07-30 17:23:58.624113,1753867438.624113,-0.7480553388595581,-0.5609294176101685,9.813678741455078,-0.0387656092643737,-0.0015517740976065,-0.1400532275438308,0.4300431311130523,-0.3972946107387543,0.5141257643699646,3.2000365650477494,-7.0387436935407655,135.86461332917142,-0.1568400590063134,-0.0180495209184686,0.029,0.009,-0.004,0.48
2025-07-30 17:23:58.631335,1753867438.631335,-0.7663363218307495,-0.5428857803344727,9.81786823272705,-0.0344136282801628,-0.0021121113095432,-0.1403036266565323,0.4291853308677673,-0.3982655704021454,0.514344334602356,3.184105787895754,-7.048881460884962,135.81764857049353,-0.1565646085597834,-0.0179464652334347,0.029,0.009,-0.004,0.48
2025-07-30 17:23:58.641914,1753867438.641914,-0.9188625812530518,-0.5522934198379517,9.8502836227417,-0.0368381179869174,0.0017488077282905,-0.1369477063417434,0.4280506670475006,-0.3990056812763214,0.5152230858802795,3.160769994656469,-7.063731511224314,135.74885343968583,-0.1561611219874358,-0.0177955067374906,0.029,0.009,-0.004,0.48
2025-07-30 17:23:58.651604,1753867438.651604,-0.5476175546646118,-0.6386802792549133,9.88120174407959,-0.0299017038196325,0.0121810995042324,-0.1247101426124572,0.4262519478797912,-0.3990631103515625,0.5152496695518494,3.1393948477221136,-7.077333877543359,135.6858383960443,-0.1557915358893104,-0.0176572315994353,0.029,0.009,-0.004,0.48
2025-07-30 17:23:58.664632,1753867438.664632,-1.007725715637207,-0.5634221434593201,9.83671760559082,-0.0140206916257739,-0.0082376999780535,-0.1157315969467163,0.4265575706958771,-0.3982059061527252,0.5159710049629211,3.1106562327310723,-7.095622087201551,135.60111546602568,-0.1552946320498801,-0.0174713224233435,0.029,0.009,-0.004,0.48
2025-07-30 17:23:58.670934,1753867438.670934,-0.5319617986679077,-0.4762766063213348,9.648158073425291,-0.0372942090034484,-0.0262025576084852,-0.1080004349350929,0.4256839454174042,-0.3991453647613525,0.5158792734146118,3.0967549979853874,-7.104468327551549,135.56013390380014,-0.155054273322777,-0.0173813957828623,0.029,0.009,-0.004,0.48
2025-07-30 17:23:58.681797,1753867438.681797,-0.8388413786888123,-0.6360178589820862,9.760473251342772,-0.0442860759794712,-0.0127424839884042,-0.1005950346589088,0.4233371913433075,-0.4010433852672577,0.5157045125961304,3.072792302815985,-7.119717315485379,135.4894906335337,-0.1546399473284141,-0.0172263818784946,0.029,0.009,-0.004,0.48
2025-07-30 17:23:58.691897,1753867438.691897,-0.691830039024353,-0.711632490158081,9.949631690979004,-0.0096978293731808,0.0030153673142194,-0.0903199762105941,0.4227462410926819,-0.401366114616394,0.515678346157074,3.050513091772677,-7.133894995332028,135.42381036193115,-0.1542547295470301,-0.0170822583787947,0.029,0.009,-0.004,0.48
2025-07-30 17:23:58.702754,1753867438.702754,-0.8419286608695984,-0.3513903617858886,9.944217681884766,-0.0205919984728097,-0.0045348866842687,-0.0861115604639053,0.4230445921421051,-0.4007809162139892,0.5160543322563171,3.0265635447142256,-7.149135616286108,135.35320585297887,-0.1538406308895384,-0.0169273295291339,0.029,0.009,-0.004,0.48
2025-07-30 17:23:58.714679,1753867438.714679,-0.6571570038795471,-0.5577171444892883,9.97972297668457,-0.0337384827435016,-0.0103634390980005,-0.0805038213729858,0.4230947494506836,-0.4020268023014068,0.5162246227264404,3.000258382097892,-7.165875265332184,135.2756568669833,-0.1533858025582159,-0.01675716227819,0.029,0.009,-0.004,0.48
2025-07-30 17:23:58.721864,1753867438.721864,-0.8737678527832031,-0.550774097442627,9.697998046875,-0.0169330891221761,-0.0262569524347782,-0.0742367431521415,0.4234089255332947,-0.4014731645584106,0.516910970211029,2.9844091232337897,-7.17596115740193,135.22893242845316,-0.1531117616002869,-0.0166546339323386,0.029,0.009,-0.004,0.48
2025-07-30 17:23:58.731312,1753867438.731312,-0.5993232727050781,-0.5973538756370544,9.808249473571776,0.0024626937229186,-0.0219851769506931,-0.0702021270990371,0.4237101078033447,-0.4020392000675201,0.5165261030197144,2.963567789604023,-7.189223824343127,135.16749109416617,-0.1527514053791291,-0.0165198120153822,0.029,0.009,-0.004,0.48
2025-07-30 17:23:58.743647,1753867438.743647,-0.8582010865211487,-0.3586898446083069,9.93336296081543,-0.0245127025991678,-0.0049439254216849,-0.0679781585931778,0.4237172901630401,-0.4017671644687652,0.5168715119361877,2.9363580369542985,-7.206539121595997,135.087275329757,-0.1522809362710733,-0.0163437930006055,0.029,0.009,-0.004,0.48
2025-07-30 17:23:58.751287,1753867438.751287,-0.7462416887283325,-0.6215492486953735,9.772193908691406,-0.0186881627887487,-0.0127104651182889,-0.055819384753704,0.4222327172756195,-0.4012709856033325,0.5175843834877014,2.919505314262458,-7.2172635815602595,135.03759262773087,-0.15198954496314,-0.0162347732795257,0.029,0.009,-0.004,0.48
2025-07-30 17:23:58.762325,1753867438.762325,-0.7586666941642761,-0.6044669151306152,9.731021881103516,-0.0122176697477698,-0.0047675417736172,-0.0579443760216236,0.4222183525562286,-0.4018150269985199,0.5168936252593994,2.8951565905555507,-7.232758224019546,134.96581132528095,-0.1515685443582409,-0.0160772621689643,0.029,0.009,-0.004,0.48
2025-07-30 17:23:58.771199,1753867438.771199,-0.8021286725997925,-0.4893576204776764,10.106593132019045,0.0114690121263265,-0.0300495941191911,-0.0517114140093326,0.4218252599239349,-0.4022108912467956,0.5146554708480835,2.87558168297253,-7.245214983471231,134.90810348077298,-0.1512300852245099,-0.0159506327213738,0.029,0.009,-0.004,0.48
2025-07-30 17:23:58.785147,1753867438.785147,-0.797524094581604,-0.3865040242671966,9.982414245605469,-0.0166512578725814,-0.0258962921798229,-0.0410136692225933,0.4206346869468689,-0.4025527834892273,0.5146381855010986,2.8588595464725937,-7.265236770176764,134.86882533044317,-0.1507035039828536,-0.0159300771609771,0.029,0.009,-0.004,0.48
2025-07-30 17:23:58.791612,1753867438.791612,-0.7172361016273499,-0.6464139223098755,9.7129545211792,-0.01583993434906,-0.0318217538297176,-0.0394775159657001,0.4206662476062774,-0.402615875005722,0.5152589082717896,2.8681199258593804,-7.2750527725207075,134.9129047358717,-0.150465977199302,-0.0161367144539493,0.029,0.009,-0.004,0.48
2025-07-30 17:23:58.803896,1753867438.803896,-0.8016664385795593,-0.5275325179100037,9.773566246032717,0.0067157847806811,-0.0095841223374009,-0.0365565344691276,0.4213447570800781,-0.4027544856071472,0.5168018341064453,2.8857155346197216,-7.2937041181751905,134.9966598327111,-0.150014653535453,-0.0165293451238787,0.029,0.009,-0.004,0.48
2025-07-30 17:23:58.811265,1753867438.811265,-0.927826762199402,-0.4766754806041717,9.971185684204102,0.0129244038835167,-0.0122719574719667,-0.0264747478067874,0.4202187359333038,-0.4037981331348419,0.5176455974578857,2.8962709191191616,-7.304892825965668,135.0469034624126,-0.149743910143138,-0.0167648793269759,0.029,0.009,-0.004,0.48
2025-07-30 17:23:58.827524,1753867438.827524,-0.893747091293335,-0.5092877149581909,9.912994384765623,-0.0058315638452768,-0.0243415087461471,-0.0188889820128679,0.4204955399036407,-0.4040290713310241,0.5169854164123535,2.919560179049901,-7.32957944198002,135.1577603385448,-0.1491465455243041,-0.0172845588591429,0.011,-0.005,-0.012,0.48
2025-07-30 17:23:58.832609,1753867438.832609,-1.0028834342956543,-0.7002950310707092,9.790960311889648,0.0087222000584006,-0.0226380452513694,-0.0067231152206659,0.4198901653289795,-0.4048958420753479,0.5162684917449951,2.926843899788999,-7.337300186116015,135.19243084890695,-0.1489597196193185,-0.0174470887376099,0.011,-0.005,-0.012,0.48
2025-07-30 17:23:58.841577,1753867438.841577,-1.128254532814026,-0.6442301273345947,9.948927879333496,0.0255984961986541,-0.0319664888083934,0.0123880691826343,0.4186752140522003,-0.4049025774002075,0.515975832939148,2.939689790430465,-7.350916830465013,135.25357728773253,-0.1486302252262187,-0.0177337335884414,0.011,-0.005,-0.012,0.48
2025-07-30 17:23:58.851947,1753867438.851947,-1.0657731294631958,-0.5947699546813965,10.001035690307615,0.0010234270012006,-0.0355320498347282,0.034962423145771,0.4186364710330963,-0.4051114916801452,0.5150097012519836,2.954543758620032,-7.366662037057055,135.324282175589,-0.1482492240663656,-0.0180651869391504,0.011,-0.005,-0.012,0.48
2025-07-30 17:23:58.861012,1753867438.861012,-1.0128923654556274,-0.8889071941375732,9.764608383178713,0.001062668627128,-0.034076303243637,0.0493830926716327,0.4183998107910156,-0.4052472710609436,0.5162556171417236,2.9675283022350567,-7.380425653560929,135.38608860256195,-0.1479161732536567,-0.0183549257102116,0.011,-0.005,-0.012,0.48
2025-07-30 17:23:58.872850,1753867438.87285,-0.8820270299911499,-1.0398032665252686,9.638638496398926,0.0305949747562408,-0.0283547844737768,0.072281964123249,0.4175563752651214,-0.4056741893291473,0.517164945602417,2.9844849461837493,-7.398399696501682,135.46680222692908,-0.1474812389028341,-0.018733298437408,0.011,-0.005,-0.012,0.48
2025-07-30 17:23:58.884476,1753867438.884476,-1.1461254358291626,-0.7501721382141113,10.065459251403809,0.0217730775475502,-0.0274776984006166,0.099071592092514,0.4175261855125427,-0.4061866998672485,0.5161638259887695,3.001137987931717,-7.416051921103308,135.5460707048356,-0.147054091884604,-0.0191048965461704,0.011,-0.005,-0.012,0.48
2025-07-30 17:23:58.891648,1753867438.891648,-1.0926861763000488,-0.6033064126968384,10.174753189086914,-0.0163744539022445,-0.0418589524924755,0.1358501762151718,0.4175132215023041,-0.4073063433170318,0.515092670917511,3.0114112853470183,-7.4269416165786915,135.59497160003036,-0.1467905839666663,-0.0193341362219039,0.011,-0.005,-0.012,0.48
2025-07-30 17:23:58.901361,1753867438.901361,-0.8955634236335754,-0.5550482869148254,9.66912078857422,-0.0235508605837821,-0.0525972470641136,0.1764865070581436,0.4175447821617126,-0.407369464635849,0.5157133936882019,3.02532405256336,-7.441689150119401,135.66119637130024,-0.1464337244138153,-0.0196445874934187,0.011,-0.005,-0.012,0.48
2025-07-30 17:23:58.916276,1753867438.916276,-0.6792573928833008,-0.5417896509170532,9.491660118103027,0.0102616995573043,-0.0583474598824977,0.2135964781045913,0.4172521829605102,-0.4071069955825805,0.5160631537437439,3.046688221824261,-7.464335169983407,135.76288981593808,-0.1458857379657617,-0.0201213103055501,0.011,-0.005,-0.012,0.48
2025-07-30 17:23:58.921609,1753867438.921609,-0.6342915296554565,-0.4471650719642639,9.6188325881958,0.0389147214591503,-0.0608456879854202,0.243618294596672,0.417543351650238,-0.406793862581253,0.5160937905311584,3.054327112741936,-7.4724323945161295,135.7992509363329,-0.145689802020398,-0.0202917654969205,0.011,-0.005,-0.012,0.48
2025-07-30 17:23:58.935269,1753867438.935269,-0.491929143667221,-0.6804721355438232,10.17349624633789,0.0416454523801803,-0.075479082763195,0.2553009688854217,0.4172751605510711,-0.4068665504455566,0.5167189240455627,3.073893915993372,-7.493173206372458,135.89238891885353,-0.1451879176324503,-0.0207283816534644,0.011,-0.005,-0.012,0.48
2025-07-30 17:23:58.941383,1753867438.941383,-0.7927722334861755,-1.1774420738220217,9.586358070373535,0.0698221921920776,-0.0348974764347076,0.3053847253322601,0.4182462692260742,-0.4072676002979278,0.5179120898246765,3.0826512514637723,-7.502455982154497,135.93407383526466,-0.1449632938195497,-0.0209237939599877,0.011,-0.005,-0.012,0.48
2025-07-30 17:23:58.951412,1753867438.951412,-0.6400222778320312,-0.7838751077651978,9.969136238098145,0.1114394962787628,-0.0729938820004463,0.3298976123332977,0.4197465777397156,-0.4077953696250915,0.5175095200538635,3.097016860657797,-7.517683528201036,136.0024541343262,-0.1445948189652165,-0.0212443500054544,0.011,-0.005,-0.012,0.48
2025-07-30 17:23:58.963890,1753867438.96389,-0.2816439867019653,-0.6004482507705688,10.201647758483888,-0.0292993392795324,-0.0476014986634254,0.3672085106372833,0.420318990945816,-0.4062898457050323,0.5179861783981323,3.114890458384832,-7.536629542166036,136.0875324586334,-0.1441363649428408,-0.0216431837568294,0.011,-0.005,-0.012,0.48
2025-07-30 17:23:58.971519,1753867438.971519,-0.8125784993171692,-0.8167041540145874,9.934423446655272,-0.0517813973128795,-0.0721126943826675,0.3991947174072265,0.4205844104290008,-0.4050659835338592,0.5181217789649963,3.125818088552202,-7.548212830372316,136.13954797769608,-0.1438560735274371,-0.021887024297489,0.011,-0.005,-0.012,0.48
2025-07-30 17:23:58.981163,1753867438.981163,-0.060710247606039,-0.9516080617904664,9.346858024597168,0.0372808724641799,-0.0714902281761169,0.4386766850948334,0.4223601818084717,-0.4052490293979645,0.5174394845962524,3.1396321594400733,-7.56285574580278,136.20530295444726,-0.1435017455146527,-0.0221952732464757,0.011,-0.005,-0.012,0.48
2025-07-30 17:23:58.991798,1753867438.991798,-1.1421712636947632,-0.6007282733917236,9.932355880737305,0.0534579344093799,-0.0764122903347015,0.4743958115577698,0.4243955612182617,-0.405055820941925,0.5161670446395874,3.180763234766332,-7.597974691944746,136.50035339012078,-0.1434093666663669,-0.0236611468476058,0.011,-0.005,-0.012,0.48
2025-07-30 17:23:59.001763,1753867439.001763,-0.3806612491607666,-0.5487512350082397,9.986095428466797,0.0387227088212966,-0.0894760414958,0.5033297538757324,0.4264683127403259,-0.4040780663490295,0.5162411332130432,3.219588698117471,-7.631090528273863,136.77926866785452,-0.1433260835135451,-0.0250470809195054,0.011,-0.005,-0.012,0.48
2025-07-30 17:23:59.014544,1753867439.014544,-0.8387150168418884,-0.6249898076057434,9.790761947631836,0.05942989513278,-0.0826160907745361,0.5350320339202881,0.4275857508182525,-0.4027308225631714,0.5154324173927307,3.269384535470978,-7.673563448294319,137.13699317663443,-0.1432192681925097,-0.0268246192067586,0.011,-0.005,-0.012,0.48
2025-07-30 17:23:59.022566,1753867439.022566,-0.6727290153503418,-0.5226430296897888,10.007792472839355,0.08196622133255,-0.1156722456216812,0.5603013634681702,0.4302810430526733,-0.401493489742279,0.5161533951759338,3.3006394189644293,-7.700222025344487,137.3615227445438,-0.1431522244275745,-0.0279403098954972,-0.006,-0.01,-0.014,0.48
2025-07-30 17:23:59.031266,1753867439.031266,-0.8389360308647156,-0.722702145576477,9.940871238708496,0.0259019657969474,-0.1131105795502662,0.577787458896637,0.4332243502140045,-0.4015751481056213,0.5148326754570007,3.334535180805783,-7.729133116275642,137.605023916506,-0.1430795158062269,-0.0291502707607176,-0.006,-0.01,-0.014,0.48
2025-07-30 17:23:59.051257,1753867439.051257,-0.5672535300254822,-0.8051662445068359,9.631902694702148,0.0275631714612245,-0.1295439004898071,0.6043797135353088,0.4355711340904236,-0.3996770977973938,0.5150073766708374,3.4124220495060804,-7.79556603357889,138.16454943765396,-0.1429124433895989,-0.0319305612136361,-0.006,-0.01,-0.014,0.48
2025-07-30 17:23:59.064771,1753867439.064771,-0.620413064956665,-0.2675186097621918,9.955401420593262,0.0380919575691223,-0.1177386939525604,0.5630192160606384,0.4430044591426849,-0.3929780721664428,0.511868417263031,3.46507427128442,-7.840475281486802,138.54279370811608,-0.142799500937551,-0.0338100624951495,-0.006,-0.01,-0.014,0.48
2025-07-30 17:23:59.071405,1753867439.071405,-1.1664116382598877,-0.2150699496269226,9.463744163513184,0.0069181071594357,-0.0853174701333046,0.5576699376106262,0.4455491006374359,-0.3911531865596771,0.5098311901092529,3.4909210669335207,-7.862521077736718,138.72847252724046,-0.1427440578739994,-0.0347327032480888,-0.006,-0.01,-0.014,0.48
2025-07-30 17:23:59.081464,1753867439.081464,-0.8507668972015381,0.3789319396018982,9.428199768066406,-0.0412123501300811,-0.2053520828485489,0.5368691682815552,0.4480865597724914,-0.3896003663539886,0.5074486136436462,3.5301125190532403,-7.895949080956131,139.01001700370682,-0.1426599896513828,-0.0361317018467326,-0.006,-0.01,-0.014,0.48
2025-07-30 17:23:59.093349,1753867439.093349,-0.590546727180481,-0.2645007669925689,10.722408294677734,0.0583580285310745,0.0698923990130424,0.4991902410984039,0.448861300945282,-0.3867447972297668,0.5068194270133972,3.5764175295226743,-7.935444530992501,139.34266402812844,-0.1425606623818417,-0.0377846297494559,-0.006,-0.01,-0.014,0.48
2025-07-30 17:23:59.101943,1753867439.101943,-1.590624451637268,-0.1017840802669525,9.890827178955078,0.0763902813196182,-0.126810997724533,0.456877738237381,0.4518392384052276,-0.3848907053470611,0.5076059699058533,3.6099008573202473,-7.964003839945761,139.58320234669654,-0.1424888384584353,-0.038979868153066,-0.006,-0.01,-0.014,0.48
2025-07-30 17:23:59.111452,1753867439.111452,-0.392163872718811,-1.1247605085372925,8.036115646362305,0.0745417922735214,-0.1081016585230827,0.4549310505390167,0.4539061486721039,-0.3847606182098388,0.5069543123245239,3.646949324442214,-7.995604003023267,139.84935199708136,-0.1424093670785003,-0.0403023696369917,-0.006,-0.01,-0.014,0.48
2025-07-30 17:23:59.121977,1753867439.121977,-1.5918924808502195,-0.7205212116241455,9.724761009216309,0.1220143809914588,-0.0586819946765899,0.451067179441452,0.4556087553501129,-0.3839382827281952,0.5054459571838379,3.6879558579167706,-8.030580163866125,140.14393569771912,-0.1423214053879168,-0.0417661603301996,-0.006,-0.01,-0.014,0.48
2025-07-30 17:23:59.139666,1753867439.139666,-0.1863160133361816,0.1388520449399948,11.403060913085938,-0.0019318050472065,0.0056342128664255,0.4291364550590515,0.4564336240291595,-0.382328599691391,0.5049870610237122,3.756874143975844,-8.089363407753632,140.63903250373153,-0.1421735711663864,-0.0442263035604899,-0.006,-0.01,-0.014,0.48
2025-07-30 17:23:59.140936,1753867439.140936,-1.4498878717422483,-0.7082490921020508,10.011826515197754,-0.1265090703964233,-0.0475246384739875,0.4086914360523224,0.4563992917537689,-0.3811142742633819,0.5051271319389343,3.761821494690205,-8.093583206884883,140.67457339827445,-0.1421629587762166,-0.0444029067824182,-0.006,-0.01,-0.014,0.48
2025-07-30 17:23:59.154101,1753867439.154101,-0.600999116897583,-1.3939025402069092,9.145766258239746,-0.0014455440687015,-0.121962085366249,0.3966008424758911,0.4570074379444122,-0.3813987374305725,0.5050832629203796,3.813113798810673,-8.137332525027842,141.04304826024784,-0.1420529334362995,-0.0462338637310545,-0.006,-0.01,-0.014,0.48
2025-07-30 17:23:59.161924,1753867439.161924,-1.1605116128921509,-0.2264080047607422,10.188153266906738,0.0847479775547981,-0.0303858518600463,0.3830766975879669,0.4587230682373047,-0.3794566690921783,0.5046461224555969,3.843593046208276,-8.163329530115075,141.2620057953102,-0.1419875534614116,-0.0473218669075306,-0.006,-0.01,-0.014,0.48
2025-07-30 17:23:59.170932,1753867439.170932,-0.9653022289276124,0.1747661232948303,10.608664512634276,-0.0131804700940847,-0.1144163534045219,0.3811663091182709,0.4601331055164337,-0.3783718943595886,0.5034876465797424,3.878689882866315,-8.19326506721159,141.51413527681876,-0.1419122684561944,-0.0485747019683862,-0.006,-0.01,-0.014,0.48
2025-07-30 17:23:59.184962,1753867439.184962,-0.8640974760055542,-0.5496217012405396,9.292492866516112,-0.0646583661437034,-0.0690085217356681,0.3615368604660034,0.4615918695926666,-0.3779573440551758,0.502879798412323,3.9205146905055983,-8.229761646680128,141.8358060396983,-0.1416562557937829,-0.049990302558998,-0.006,-0.01,-0.014,0.48
2025-07-30 17:23:59.193288,1753867439.193288,-0.6903566122055054,-1.1175777912139893,9.02592658996582,0.0838855504989624,-0.0444439761340618,0.3557489812374115,0.462773859500885,-0.3773119449615478,0.5029321908950806,3.923874764761064,-8.234490640173242,141.90798541474135,-0.1412723614962822,-0.0499349228058076,-0.006,-0.01,-0.014,0.48
2025-07-30 17:23:59.201512,1753867439.201512,-1.1014995574951172,-0.1868418604135513,10.541194915771484,0.0810616463422775,-0.0357613824307918,0.328949511051178,0.4642528593540191,-0.3755057156085968,0.5037408471107483,3.9271936583344,-8.239161675668104,141.97928016769754,-0.1408931721629683,-0.0498802217804783,-0.006,-0.01,-0.014,0.48
2025-07-30 17:23:59.213101,1753867439.213101,-1.3941551446914673,-0.3157424628734588,10.492008209228516,-0.0622034110128879,-0.1803375482559204,0.3337840437889099,0.4653645157814026,-0.3750061094760895,0.5022063851356506,3.931870456036005,-8.245743835530648,142.0797447139067,-0.1403588399334678,-0.0498031401796729,-0.006,-0.01,-0.014,0.48
2025-07-30 17:23:59.226695,1753867439.226695,-0.4837458431720733,-1.1445040702819824,9.412589073181152,-0.0819044262170791,-0.1273402273654937,0.324793666601181,0.4655610024929046,-0.3745036721229553,0.5003747940063477,3.937356531114698,-8.25346497839161,142.1975937376226,-0.1397320463633717,-0.0497127203077466,-0.018,-0.013,-0.01,0.48
2025-07-30 17:23:59.234222,1753867439.234222,-0.8799065947532654,-1.0348246097564695,9.433723449707031,0.0336390472948551,-0.019497312605381,0.3167058825492859,0.4652927815914154,-0.3745763301849365,0.500999927520752,3.940394087504511,-8.257740057842318,142.26284495090107,-0.1393850002900627,-0.0496626561989264,-0.018,-0.013,-0.01,0.48
2025-07-30 17:23:59.241189,1753867439.241189,-0.97439044713974,-0.0694148540496826,10.04743766784668,0.0061689629219472,-0.0326597020030021,0.3040172159671783,0.4665306508541107,-0.3743290901184082,0.501948356628418,3.943205727441892,-8.261697180797928,142.3232431439458,-0.139063765562339,-0.0496163155784656,-0.018,-0.013,-0.01,0.48
2025-07-30 17:23:59.251482,1753867439.251482,-0.947524905204773,-0.2523922026157379,9.864893913269045,-0.0641209781169891,-0.0564581342041492,0.3003055155277252,0.4676567018032074,-0.3732854127883911,0.5011046528816223,3.947359588210375,-8.267543355332169,142.4124742297759,-0.1385891797822663,-0.0495478528700086,-0.018,-0.013,-0.01,0.48
2025-07-30 17:23:59.261495,1753867439.261495,-0.956383466720581,-0.8677541017532349,9.16311264038086,-0.0104818986728787,-0.0560583584010601,0.2969480156898498,0.4688544869422912,-0.3726715743541717,0.5014673471450806,3.9514004907526417,-8.27323055161886,142.4992788054892,-0.1381274996749862,-0.0494812519057313,-0.018,-0.013,-0.01,0.48
2025-07-30 17:23:59.272260,1753867439.27226,-1.017647385597229,-0.6576764583587646,9.532122611999512,0.0201810859143733,-0.0411090068519115,0.2883851826190948,0.4691614508628845,-0.3723899126052856,0.5018082857131958,3.955744764067702,-8.279344714187088,142.59260023503415,-0.1376311589320031,-0.0494096508738231,-0.018,-0.013,-0.01,0.48
2025-07-30 17:23:59.299696,1753867439.299696,-0.9999056458473206,-0.5318927764892578,10.251348495483398,-0.0264860484749078,-0.0371347740292549,0.2807959020137787,0.4703118503093719,-0.3716814219951629,0.5012398958206177,3.966816883217456,-8.294927697012248,142.83044576458803,-0.1363661501614604,-0.0492271634705132,-0.018,-0.013,-0.01,0.48
2025-07-30 17:23:59.300710,1753867439.30071,-0.8407668471336365,-0.8136066794395447,9.573579788208008,-0.0164308361709117,-0.0262728706002235,0.2687363922595978,0.4712571799755096,-0.3711717426776886,0.5025380849838257,3.967226092191985,-8.295503620765935,142.83923617985803,-0.1363193973280811,-0.0492204190088467,-0.018,-0.013,-0.01,0.48
2025-07-30 17:23:59.312920,1753867439.31292,-0.949607253074646,-0.4351924061775207,10.149496078491213,-0.018597774207592,-0.0591459535062313,0.2628902494907379,0.471502423286438,-0.3713395297527313,0.5012571811676025,3.972153630215155,-8.302438674421593,142.94508699980193,-0.1357564175829949,-0.0491392047799898,-0.018,-0.013,-0.01,0.48
2025-07-30 17:23:59.321381,1753867439.321381,-1.0406172275543213,-0.5026557445526123,10.047593116760254,-0.0582132115960121,-0.0726089254021644,0.2594810128211975,0.4729354381561279,-0.3700142800807953,0.5007544159889221,3.975568163036242,-8.307244313304922,143.01843622554867,-0.1353663013001443,-0.0490829274567775,-0.018,-0.013,-0.01,0.48
2025-07-30 17:23:59.330822,1753867439.330822,-0.9347182512283324,-0.8267548084259033,9.40127658843994,-0.0428867861628532,-0.0530727170407772,0.2628061473369598,0.47357377409935,-0.3697862029075622,0.5017116665840149,3.979378145865631,-8.31260651147056,143.10028030357844,-0.1349310041696125,-0.0490201324431232,-0.018,-0.013,-0.01,0.48
2025-07-30 17:23:59.341669,1753867439.341669,-0.7876577973365784,-0.8688269853591919,9.496172904968262,0.0062371944077312,-0.0232384521514177,0.2612839937210083,0.4729800224304199,-0.3689577281475067,0.5024462938308716,3.983755613889417,-8.318767392518689,143.19431480466542,-0.1344308708737219,-0.0489479843058129,-0.018,-0.013,-0.01,0.48
2025-07-30 17:23:59.352335,1753867439.352335,-0.9354789853096008,-0.4663244485855102,9.932034492492676,0.0109142707660794,-0.0070982836186885,0.2536746859550476,0.4729140996932983,-0.3676803112030029,0.5019657015800476,3.9880599573374576,-8.32482535749515,143.28677848148595,-0.1339390921871349,-0.0488770413861999,-0.018,-0.013,-0.01,0.48
2025-07-30 17:23:59.361541,1753867439.361541,-1.0533833503723145,-0.4170240759849548,9.814939498901367,-0.0510711036622524,-0.0476263538002967,0.245494857430458,0.4752937853336334,-0.3664209544658661,0.5023807287216187,3.991775166868021,-8.33005417101527,143.36658668859144,-0.1335146230699768,-0.0488158083981138,-0.018,-0.013,-0.01,0.48
2025-07-30 17:23:59.380914,1753867439.380914,-0.9147468209266664,-0.8146697878837585,9.500968933105469,-0.0776983946561813,-0.0577670224010944,0.2440211921930313,0.4752121269702911,-0.3651120066642761,0.5015897154808044,3.9995933386136855,-8.341057524067118,143.53453260516267,-0.1326213834205376,-0.0486869515965205,-0.018,-0.013,-0.01,0.48
2025-07-30 17:23:59.382913,1753867439.382913,-0.8677469491958618,-0.8704086542129517,9.608874320983888,-0.0368126630783081,-0.0367870852351188,0.240923210978508,0.4748621881008148,-0.3638757169246673,0.5014238357543945,4.000400114360552,-8.342192986252552,143.55186334394438,-0.1325292078955234,-0.0486736545565314,-0.018,-0.013,-0.01,0.48
2025-07-30 17:23:59.395179,1753867439.395179,-0.9547430276870728,-0.5779339075088501,9.82139015197754,-0.0234036687761545,-0.0010848734527826,0.2408458888530731,0.4757859110832214,-0.3641821444034576,0.5016859173774719,4.005350167055728,-8.349159727225013,143.65819781241242,-0.1319636558102042,-0.0485920692474887,-0.018,-0.013,-0.01,0.48
2025-07-30 17:23:59.402334,1753867439.402334,-0.9610366821289062,-0.5578530430793762,9.647790908813477,-0.0386650338768959,-0.0044433423317968,0.2400127947330474,0.4752035439014435,-0.3648084104061126,0.5016247034072876,4.008237625632171,-8.353223557897037,143.7202247021966,-0.1316337586717815,-0.0485444790065734,-0.018,-0.013,-0.01,0.48
2025-07-30 17:23:59.411199,1753867439.411199,-0.8205607533454895,-0.7409141063690186,9.511818885803224,-0.0248319655656814,-0.010134638287127,0.2395132929086685,0.4763611257076263,-0.3638278543949127,0.5014017224311829,4.011815245500477,-8.358258726703362,143.79707727943233,-0.1312250094116026,-0.0484855137307336,-0.018,-0.013,-0.01,0.48
2025-07-30 17:23:59.421622,1753867439.421622,-0.8765015006065369,-0.6404539346694946,9.841748237609863,-0.0119626512750983,-0.0079968636855483,0.2350609600543975,0.478151261806488,-0.3634668588638305,0.501410186290741,4.016021544287093,-8.36417870289426,143.8874348116114,-0.1307444324972266,-0.0484161867543226,-0.03,-0.016,0.0,0.48
2025-07-30 17:23:59.431247,1753867439.431247,-0.9931973218917848,-0.5249437093734741,10.008042335510254,-0.0481346435844898,-0.0146091002970933,0.2304143607616424,0.4781025350093841,-0.3627966046333313,0.5008594989776611,4.019905806290791,-8.36964544212217,143.97087451639604,-0.1303006488425074,-0.0483521674932179,-0.03,-0.016,0.0,0.48
2025-07-30 17:23:59.441860,1753867439.44186,-0.968377947807312,-0.7295564413070679,9.747689247131348,-0.0695510953664779,-0.0070846187882125,0.2274328768253326,0.4789661467075348,-0.3609779775142669,0.5013667345046997,4.024188789665391,-8.375673344772434,144.06287934718085,-0.1298113105812696,-0.0482815766240376,-0.03,-0.016,0.0,0.48
2025-07-30 17:23:59.451382,1753867439.451382,-0.9060148000717164,-0.7954744696617126,9.563559532165527,-0.0409627482295036,0.0030514623504132,0.2259426265954971,0.4786835014820099,-0.3615947067737579,0.501301109790802,4.028031486120772,-8.381081584338554,144.14542616238242,-0.1293722758623651,-0.048218242434045,-0.03,-0.016,0.0,0.48
2025-07-30 17:23:59.463720,1753867439.46372,-0.93608295917511,-0.6094777584075928,9.823796272277832,-0.0223830454051494,-0.0046470556408166,0.2196035534143448,0.4790220856666565,-0.3613762259483337,0.5022627711296082,4.0330106924296985,-8.388089356323798,144.252386893683,-0.1288033929262313,-0.0481361766237362,-0.03,-0.016,0.0,0.48
2025-07-30 17:23:59.471744,1753867439.471744,-0.9655381441116332,-0.5122383236885071,9.845070838928224,-0.0415256842970848,-0.0318964980542659,0.2181613594293594,0.4793018996715545,-0.3596082925796509,0.503089189529419,4.036248860320074,-8.392646777892173,144.321947539324,-0.1284334266418723,-0.0480828060953122,-0.03,-0.016,0.0,0.48
2025-07-30 17:23:59.481966,1753867439.481966,-0.9194085597991944,-0.6707016229629517,9.59542751312256,-0.0544324815273284,-0.0339753963053226,0.2167044878005981,0.4801912605762481,-0.3587003946304321,0.5034913420677185,4.040374048557542,-8.39845259849305,144.41056269669173,-0.1279621167480791,-0.0480148159590576,-0.03,-0.016,0.0,0.48
2025-07-30 17:23:59.491528,1753867439.491528,-0.8441827297210693,-0.7527149319648743,9.58637523651123,-0.0456447266042232,-0.0141478292644023,0.216093361377716,0.4813746213912964,-0.3586305379867553,0.5031632781028748,4.044232909392823,-8.403883587927643,144.49345674673117,-0.1275212352208023,-0.0479512153525214,-0.03,-0.016,0.0,0.48
2025-07-30 17:23:59.505309,1753867439.505309,-0.8929504156112671,-0.6604793667793274,9.889520645141602,-0.0363152921199798,0.0027257571928203,0.2149671167135238,0.4809945523738861,-0.3579067587852478,0.5019962787628174,4.04979441824439,-8.41171089684148,144.61292619969032,-0.1268858232116351,-0.0478595522033916,-0.03,-0.016,0.0,0.48
2025-07-30 17:23:59.511464,1753867439.511464,-0.9995646476745604,-0.5850669741630554,9.860058784484863,-0.0430661626160144,-0.0005902959965169,0.2125152647495269,0.480970174074173,-0.3575716316699981,0.5017209649085999,4.052278344622579,-8.41520679329696,144.66628461977257,-0.12660203032508,-0.04781861286119,-0.03,-0.016,0.0,0.48
2025-07-30 17:23:59.523745,1753867439.523745,-0.9381383657455444,-0.6493501663208008,9.575671195983888,-0.0478936806321144,-0.0176086593419313,0.2082731425762176,0.4810490906238556,-0.3577293753623962,0.5032727718353271,4.057234458960218,-8.4221820654701,144.77274930130477,-0.1260357856866211,-0.0477369276459435,-0.03,-0.016,0.0,0.48
2025-07-30 17:23:59.531029,1753867439.531029,-0.8880397081375122,-0.6255546808242798,9.52829360961914,-0.0509812161326408,-0.0273925084620714,0.2054402977228164,0.480724960565567,-0.3574038445949554,0.503001868724823,4.060173970688605,-8.426319156135245,144.83589436994177,-0.1256999413855231,-0.0476884794803253,-0.03,-0.016,0.0,0.48
2025-07-30 17:23:59.541243,1753867439.541243,-0.849999189376831,-0.6376426815986633,9.681658744812012,-0.0528561808168888,-0.0109216971322894,0.2032795250415802,0.4824893176555633,-0.3561320900917053,0.5031153559684753,4.06429598378002,-8.432120508011957,144.92444132046637,-0.1252289942576602,-0.0476205416758917,-0.03,-0.016,0.0,0.48
2025-07-30 17:23:59.555340,1753867439.55534,-0.9191802740097046,-0.6541860103607178,9.673948287963867,-0.0484135411679744,0.0084787961095571,0.2067444026470184,0.4824879169464111,-0.355556458234787,0.5034957528114319,4.069984979556406,-8.440127242971794,145.04664938152163,-0.1245790166467466,-0.0475267773248554,-0.03,-0.016,0.0,0.48
2025-07-30 17:23:59.562820,1753867439.56282,-0.8906518816947937,-0.6683242321014404,9.568122863769531,-0.0394762866199016,0.0096599906682968,0.2046009749174118,0.4822111129760742,-0.3553256094455719,0.5041559338569641,4.073003581286453,-8.444375645493398,145.1114934206152,-0.1242341361761123,-0.0474770256211488,-0.03,-0.016,0.0,0.48
2025-07-30 17:23:59.571267,1753867439.571267,-0.8811010122299194,-0.6270469427108765,9.699381828308104,-0.0356565825641155,0.0043992334976792,0.2062012255191803,0.4830847084522247,-0.3543861508369446,0.5042477250099182,4.061473435379294,-8.445605637101211,145.21538448917568,-0.1236890661604436,-0.0472553443933685,-0.03,-0.016,0.0,0.48
2025-07-30 17:23:59.580776,1753867439.580776,-0.90897399187088,-0.5895525217056274,9.82905101776123,-0.0456748902797699,-0.0033058733679354,0.2072025686502456,0.4832955598831177,-0.3533396422863006,0.5031068921089172,4.043939804367376,-8.445902817393348,145.34168606820867,-0.1230280266831666,-0.0469553418561102,-0.03,-0.016,0.0,0.48
2025-07-30 17:23:59.593095,1753867439.593095,-0.9449415802955629,-0.6499854326248169,9.67836570739746,-0.0538679584860801,-0.0052190939895808,0.2027861624956131,0.48328697681427,-0.3530360758304596,0.5031419396400452,4.021224863178284,-8.446287816533221,145.50531064419494,-0.1221716454327679,-0.0465666864780102,-0.03,-0.016,0.0,0.48
2025-07-30 17:23:59.603484,1753867439.603484,-0.8734601736068726,-0.6787582635879517,9.502309799194336,-0.0477946884930133,0.0017152309883385,0.199311152100563,0.484500527381897,-0.3524537086486816,0.5038149952888489,4.002069050378331,-8.446612491441694,145.6432974309963,-0.1214494477047851,-0.0462389282150854,-0.03,-0.016,0.0,0.48
2025-07-30 17:23:59.611458,1753867439.611458,-0.884082555770874,-0.6067535877227783,9.561440467834473,-0.0430616699159145,0.0135215763002634,0.2009565830230713,0.4842251241207123,-0.3527984023094177,0.5040947794914246,3.98736566499009,-8.446861701451994,145.74921164753272,-0.1208951119722356,-0.0459873515211444,-0.03,-0.016,0.0,0.48
2025-07-30 17:23:59.622933,1753867439.622933,-0.9237839579582214,-0.5551552176475525,9.735211372375488,-0.0503460764884948,0.008238086476922,0.1993158310651779,0.4836399555206299,-0.3522735238075256,0.5047943592071533,3.9662074028555865,-8.447220316191745,145.90162285747357,-0.1200974194388422,-0.0456253311090567,-0.03,-0.016,0.0,0.48
2025-07-30 17:23:59.631511,1753867439.631511,-0.916912317276001,-0.6315712332725525,9.72616481781006,-0.0480596199631691,-0.0037615660112351,0.1973137706518173,0.4835984110832214,-0.3513312637805938,0.5045890808105469,3.950390470998757,-8.447488399877704,146.0155583832992,-0.1195011016333827,-0.0453547015009929,-0.037,-0.017,0.013,0.48
2025-07-30 17:23:59.642150,1753867439.64215,-0.8744471669197083,-0.6432297825813293,9.675898551940918,-0.041395366191864,-0.001404101611115,0.1951016187667846,0.48536416888237,-0.3506350815296173,0.5043221712112427,3.930773501370716,-8.447820891006378,146.15686706249863,-0.1187615177251857,-0.0450190527892268,-0.037,-0.017,0.013,0.48
2025-07-30 17:23:59.655280,1753867439.65528,-0.8821651339530945,-0.5666863322257996,9.717774391174316,-0.0432424545288085,0.0051714912988245,0.1949148625135421,0.4853326082229614,-0.3505719900131225,0.5037014484405518,3.906562987703874,-8.448231238841313,146.33126483003718,-0.1178487515509656,-0.0446048079860001,-0.037,-0.017,0.013,0.48
2025-07-30 17:23:59.660926,1753867439.660926,-0.9104147553443908,-0.5597490072250366,9.71181869506836,-0.0533583834767341,0.0117399580776691,0.1950697749853134,0.4853555858135223,-0.3503315150737762,0.5043572187423706,3.896152449242505,-8.448407688708379,146.40625599674766,-0.1174562614330888,-0.0444266824197376,-0.037,-0.017,0.013,0.48
2025-07-30 17:23:59.671067,1753867439.671067,-0.9265097975730896,-0.605881929397583,9.569620132446287,-0.0492695458233356,0.0083032324910163,0.1952292323112487,0.4850773811340332,-0.3495250344276428,0.5053977966308594,3.877453836729696,-8.448724614456692,146.54094939165765,-0.1167513007188551,-0.0441067469087621,-0.037,-0.017,0.013,0.48
2025-07-30 17:23:59.681062,1753867439.681062,-0.7879329919815063,-0.6631439924240112,9.44768238067627,-0.0407790541648864,-0.0023670212831348,0.1921999454498291,0.4842884838581085,-0.349774569272995,0.507583498954773,3.8590242690012433,-8.449036980122298,146.6737047521085,-0.1160564833242506,-0.0437914147864337,-0.037,-0.017,0.013,0.48
2025-07-30 17:23:59.690835,1753867439.690835,-1.0278279781341553,-0.4664487242698669,9.72716236114502,-0.0441967062652111,0.0013923782389611,0.1947003901004791,0.4839499294757843,-0.3499930500984192,0.5066218376159668,3.841003983452916,-8.449342408799334,146.80351189347206,-0.1153770963717619,-0.0434830855314754,-0.037,-0.017,0.013,0.48
2025-07-30 17:23:59.701519,1753867439.701519,-0.6730273962020874,-0.5027557015419006,9.968153953552246,-0.0560004599392414,0.0289200451225042,0.1989836394786834,0.4845007658004761,-0.349303662776947,0.506062388420105,3.821303926465,-8.449676308188844,146.9454190833133,-0.1146343799677971,-0.0431460151849801,-0.037,-0.017,0.013,0.48
2025-07-30 17:23:59.710582,1753867439.710582,-1.1830624341964722,-0.8537309169769287,9.710034370422363,-0.0483300313353538,0.0168246906250715,0.1992866545915603,0.4845553040504455,-0.3491263091564178,0.5073387622833252,3.8045928163542775,-8.449959547443807,147.06579572366488,-0.1140043505412168,-0.0428600860793537,-0.037,-0.017,0.013,0.48
2025-07-30 17:23:59.721576,1753867439.721576,-0.8826701641082764,-0.5115765333175659,9.225979804992676,-0.0343087203800678,-0.0107886176556348,0.2049950212240219,0.485136330127716,-0.3479244112968445,0.5077803730964661,3.784321259007434,-8.450303133283517,147.2118196533703,-0.1132400878700655,-0.0425132372929217,-0.037,-0.017,0.013,0.48
2025-07-30 17:23:59.731089,1753867439.731089,-0.6794068217277527,-0.6435257196426392,9.724786758422852,-0.0475365780293941,0.0252854786813259,0.2060474157333374,0.4848509132862091,-0.3473899364471435,0.5084755420684814,3.766780154529284,-8.450600440244617,147.33817506669385,-0.11257876663391,-0.0422131068837565,-0.037,-0.017,0.013,0.48
2025-07-30 17:23:59.751455,1753867439.751455,-1.2428734302520752,-0.4840489029884338,9.809078216552734,-0.0546409375965595,0.0197098311036825,0.2064974308013916,0.4842743277549743,-0.3471685945987701,0.509140133857727,3.7274766635046,-8.44850086989855,147.6023321291171,-0.1113122676853374,-0.0417428410670615,-0.037,-0.017,0.013,0.48
2025-07-30 17:23:59.761023,1753867439.761023,-1.1748820543289185,-0.6726189255714417,9.56385612487793,-0.0425875633955001,0.017344819381833,0.2091807723045349,0.4874703288078308,-0.3439959585666656,0.5091313123703003,3.7050500888642897,-8.441324365951026,147.71207283607578,-0.1110549829728695,-0.0419116358023964,-0.037,-0.017,0.013,0.48
2025-07-30 17:23:59.772354,1753867439.772354,-0.7122881412506104,-0.5145701766014099,9.689393997192385,-0.04023452475667,0.0083571150898933,0.2140396237373352,0.4876554310321808,-0.3420387506484985,0.5080955624580383,3.678491494267077,-8.43282561560575,147.8420328943402,-0.1107502944288502,-0.0421115303925334,-0.037,-0.017,0.013,0.48
2025-07-30 17:23:59.780735,1753867439.780735,-1.0401657819747925,-0.6394143104553223,9.728405952453612,-0.0425298362970352,0.0172343552112579,0.2119605392217636,0.487993985414505,-0.3418202698230743,0.5090572237968445,3.658846796194992,-8.426539312167826,147.93816095174515,-0.1105249242786575,-0.0422593871947866,-0.037,-0.017,0.013,0.48
2025-07-30 17:23:59.791557,1753867439.791557,-0.6686353087425232,-0.4068366289138794,9.732979774475098,-0.0479589253664016,-0.0001328060607193,0.2199685424566269,0.4876784384250641,-0.3417982757091522,0.5087512731552124,3.633480753746552,-8.41842217851349,148.06228545473692,-0.1102339170676827,-0.0424503059815496,-0.037,-0.017,0.013,0.48
2025-07-30 17:23:59.800913,1753867439.800913,-0.9678045511245728,-0.6976103186607361,9.52055549621582,-0.0517257340252399,0.0507902428507804,0.2181288450956344,0.4870387017726898,-0.3414507508277893,0.508174479007721,3.6115509826958654,-8.41140465171603,148.16959513609228,-0.1099823318421298,-0.0426153614998274,-0.037,-0.017,0.013,0.48
2025-07-30 17:23:59.811553,1753867439.811553,-0.9025214314460754,-0.6441838145256042,9.599149703979492,-0.05029783770442,0.0066266972571611,0.2237065136432647,0.4870888292789459,-0.3426965773105621,0.5083447098731995,3.5866118895640446,-8.403424141844205,148.29163043372864,-0.1096962227278963,-0.0428030668312118,-0.037,-0.017,0.013,0.48
2025-07-30 17:23:59.821414,1753867439.821414,-0.8290565609931946,-0.5177769064903259,9.806074142456056,-0.0520970821380615,0.0169041939079761,0.2200710326433181,0.4879926145076751,-0.341244637966156,0.509437620639801,3.56349850771153,-8.396027859586855,148.40473191736504,-0.1094310587472411,-0.0429770308553689,-0.037,-0.017,0.013,0.48
2025-07-30 17:23:59.830809,1753867439.830809,-0.9665011167526244,-0.4629212915897369,9.852073669433594,-0.0584634058177471,0.0066526122391223,0.2255499064922332,0.4874118566513061,-0.3392964899539947,0.511243462562561,3.54147708785466,-8.38898100517116,148.51249006688568,-0.1091784220977804,-0.0431427761729689,-0.04,-0.018,0.019,0.48
2025-07-30 17:23:59.841164,1753867439.841164,-0.8158158659934998,-0.6657490730285645,9.429644584655762,-0.0528409108519554,0.0358846299350261,0.2282008826732635,0.4874176383018493,-0.3384488821029663,0.5119692087173462,3.517205801572784,-8.381214193493182,148.63125756295182,-0.1088999742736069,-0.0433254552227076,-0.04,-0.018,0.019,0.48
2025-07-30 17:23:59.851686,1753867439.851686,-0.9873363971710204,-0.5259437561035156,9.623848915100098,-0.0429069548845291,0.0271145831793546,0.2316410094499588,0.4879369139671325,-0.337696373462677,0.5107889771461487,3.4925433313620693,-8.373322202956883,148.75193925240632,-0.1086170386644611,-0.0435110785378454,-0.04,-0.018,0.019,0.48
2025-07-30 17:23:59.861269,1753867439.861269,-1.049666404724121,-0.4062526822090149,9.846603393554688,-0.0411330610513687,0.0323442742228508,0.2411818951368332,0.4881865680217743,-0.3364409804344177,0.510614275932312,3.4700815501681634,-8.366134432912109,148.86185223677,-0.1083593500513456,-0.0436801382570661,-0.04,-0.018,0.019,0.48
2025-07-30 17:23:59.871521,1753867439.871521,-1.2051725387573242,-0.476438969373703,9.719138145446776,-0.0622330233454704,0.0318180583417415,0.2613669335842132,0.4882109463214874,-0.3367760777473449,0.5108895897865295,3.446051680253799,-8.358444874472408,148.97943840205926,-0.1080836718316123,-0.0438610002744442,-0.04,-0.018,0.019,0.48
2025-07-30 17:23:59.881741,1753867439.881741,-1.2241250276565552,-0.7283865809440613,9.64706039428711,-0.0482820235192775,0.0273532271385192,0.2815642058849334,0.4876658916473388,-0.3366178572177887,0.5121749043464661,3.422096694120098,-8.350779278842728,149.09665813604272,-0.1078088527021451,-0.0440412986753029,-0.04,-0.018,0.019,0.48
2025-07-30 17:23:59.890865,1753867439.890865,-0.8802885413169861,-0.5588201284408569,9.731690406799316,-0.0273992102593183,0.0133550260215997,0.3008654713630676,0.4867579638957977,-0.336342990398407,0.5122232437133789,3.4007106687304978,-8.343935750658334,149.20130708858815,-0.1075635054977038,-0.044202261664676,-0.04,-0.018,0.019,0.48
2025-07-30 17:23:59.901536,1753867439.901536,-1.4322431087493896,-0.4122594892978668,9.63341236114502,-0.0520795062184333,0.000705549493432,0.305372804403305,0.4876860678195953,-0.3352261483669281,0.513591468334198,3.375698927154749,-8.33593199328425,149.32369787928238,-0.1072765629376897,-0.0443905137882059,-0.04,-0.018,0.019,0.48
2025-07-30 17:23:59.910428,1753867439.910428,-0.4760864675045013,-1.4147465229034424,9.085368156433104,-0.0533646717667579,0.0150444349274039,0.3243853747844696,0.4883230626583099,-0.3344224691390991,0.5149290561676025,3.3548566474262342,-8.329262463712922,149.4256861030179,-0.10703745375436,-0.0445473842486741,-0.04,-0.018,0.019,0.48
2025-07-30 17:23:59.921910,1753867439.92191,-1.432452917098999,-1.083290696144104,9.74501895904541,-0.0026464343536645,0.0463160276412963,0.3518779575824737,0.4886114597320556,-0.3329581320285797,0.5157204866409302,3.3279437519563304,-8.320650337087399,149.55737987357992,-0.1067287005593801,-0.044749945502044,-0.04,-0.018,0.019,0.48
2025-07-30 17:23:59.931553,1753867439.931553,-0.6275114417076111,-0.5136588215827942,10.113677024841309,-0.0383322313427925,0.0668642446398735,0.3668995797634125,0.4891536831855774,-0.3319651782512665,0.5151959657669067,3.3053000515922,-8.31302615478517,149.66969528612532,-0.106461963686817,-0.0449158009189158,-0.04,-0.018,0.019,0.48
2025-07-30 17:23:59.943686,1753867439.943686,-1.2123539447784424,-0.6281370520591736,9.681050300598145,-0.1267811357975006,0.0297389067709445,0.4038578569889068,0.4899799525737762,-0.3309310674667358,0.5143567323684692,3.2749650411512765,-8.286103832886488,149.88696979615827,-0.1057970843942319,-0.0449359375480808,-0.04,-0.018,0.019,0.48
2025-07-30 17:23:59.951081,1753867439.951081,-0.8136994242668152,-0.4589782953262329,9.423120498657228,-0.079151801764965,0.0173530355095863,0.4097380638122558,0.4894249141216278,-0.3298936486244201,0.5160573720932007,3.256476123508397,-8.26969491839776,150.01939666740395,-0.1053918464099892,-0.0449482106435183,-0.04,-0.018,0.019,0.48
2025-07-30 17:23:59.963200,1753867439.9632,-0.5718343257904053,-0.4321978390216827,9.725261688232422,-0.0492001473903656,0.0274503286927938,0.4248475432395935,0.4895082414150238,-0.3286281824111938,0.5187153816223145,3.2261762823662763,-8.24280380925192,150.23641927733684,-0.1047277379540766,-0.0449683239270139,-0.04,-0.018,0.019,0.48
2025-07-30 17:23:59.972055,1753867439.972055,-1.1720912456512451,-0.3414115309715271,9.87155532836914,-0.0545549429953098,0.0126333776861429,0.4581735730171203,0.490618497133255,-0.3275529742240906,0.5175613164901733,3.204037506815561,-8.223155645854062,150.39498825557666,-0.1042425028012644,-0.0449830198281181,-0.04,-0.018,0.019,0.48
2025-07-30 17:23:59.981045,1753867439.981045,-0.791397213935852,-0.6913670897483826,9.551548957824709,-0.0186686851084232,0.0381522625684738,0.4755252301692962,0.4927042424678802,-0.3254555463790893,0.5187065601348877,3.1815607483424646,-8.203207522611116,150.555978036473,-0.1037498597773795,-0.044997940085063,-0.04,-0.018,0.019,0.48
2025-07-30 17:23:59.990895,1753867439.990895,-0.7424243092536926,-0.3580091893672943,9.895306587219238,-0.0025328265037387,0.0219746194779872,0.5050181150436401,0.493890643119812,-0.3233868777751922,0.5198650360107422,3.156933893923988,-8.181351189207263,150.73236787941858,-0.1032100911962465,-0.0450142875933618,-0.04,-0.018,0.019,0.48
2025-07-30 17:24:00.001231,1753867440.001231,-0.90266215801239,-0.6221156120300293,10.167804718017578,-0.0388115271925926,-0.0006003071903251,0.5172783136367798,0.4937931597232818,-0.3220463991165161,0.5187636613845825,3.1310922084723294,-8.158416693256159,150.91745894954926,-0.102643696087342,-0.0450314415164816,-0.04,-0.018,0.019,0.48
2025-07-30 17:24:00.011566,1753867440.011566,-0.7921224236488342,-0.8235166072845459,9.654882431030272,-0.057585459202528,-0.0284080617129802,0.5473730564117432,0.4934762120246887,-0.321448802947998,0.5188381671905518,3.105252907379912,-8.135484313423893,151.102532941707,-0.1020773532385509,-0.0450485938568441,-0.04,-0.018,0.019,0.48
2025-07-30 17:24:00.021847,1753867440.021847,-0.7005302906036377,-0.7118164300918579,9.408605575561523,-0.063653752207756,-0.0361458957195282,0.5748828053474426,0.4946179986000061,-0.3204366862773895,0.5183047652244568,3.0795483225845985,-8.112671494305896,151.28664202839678,-0.1015139630861663,-0.0450656567714217,-0.04,-0.018,0.019,0.48
2025-07-30 17:24:00.030882,1753867440.030882,-0.5604742169380188,-0.7789010405540466,9.487282752990724,-0.0687131881713867,-0.0034796122927218,0.6031312346458435,0.4957770109176636,-0.3200317025184631,0.5177013874053955,3.056959499227185,-8.09262391347763,151.4484344740187,-0.101018863836952,-0.0450806514179576,-0.04,-0.02,0.018,0.48
2025-07-30 17:24:00.041339,1753867440.041339,-0.6147429943084717,-0.6730959415435791,9.637622833251951,-0.028534522280097,0.0036165826022624,0.6387262940406799,0.4976045191287994,-0.3188861608505249,0.5190563201904297,3.0308150001519465,-8.069420670434278,151.63569444670577,-0.1004458316936472,-0.0450980063512486,-0.04,-0.02,0.018,0.48
2025-07-30 17:24:00.051634,1753867440.051634,-0.7617536187171936,-0.5442637205123901,9.480477333068848,-0.0381022803485393,-0.0196526199579238,0.6673524379730225,0.4987263679504394,-0.3161156773567199,0.5193538069725037,3.005075246057832,-8.04657663856344,151.8200554334956,-0.0998816707045901,-0.0451150926114958,-0.04,-0.02,0.018,0.48
2025-07-30 17:24:00.060689,1753867440.060689,-0.4779616296291351,-0.9791776537895204,9.844555854797363,-0.029282309114933,-0.0110631342977285,0.7017140984535217,0.5002269148826599,-0.3134933710098266,0.5211986899375916,2.982436351156361,-8.026484619239604,151.9822065165481,-0.0993854739929947,-0.045130120495934,-0.04,-0.02,0.018,0.48
2025-07-30 17:24:00.071748,1753867440.071748,-1.2959635257720947,-0.6457235813140869,9.614131927490234,-0.0067952247336506,-0.0182433072477579,0.7158898711204529,0.502255380153656,-0.3104221820831299,0.521828293800354,2.954786725310376,-8.001945576180647,152.180246959619,-0.0987794526531134,-0.0451484745447417,-0.04,-0.02,0.018,0.48
2025-07-30 17:24:00.081388,1753867440.081388,-0.5822628140449524,-0.1852902770042419,9.964738845825195,-0.0641081854701042,-0.0377161726355552,0.6638252139091492,0.505952000617981,-0.3053143322467804,0.5210896134376526,2.9306850260146824,-7.980555317950557,152.35287537903665,-0.0982511943619542,-0.0451644734507553,-0.04,-0.02,0.018,0.48
2025-07-30 17:24:00.091717,1753867440.091717,-0.7898378968238831,-0.8870962858200073,9.361425399780272,-0.0933081060647964,0.035619106143713,0.6677306294441223,0.5073908567428589,-0.3031414151191711,0.5213125944137573,2.9048606271675195,-7.957636163861019,152.53784263386387,-0.0976851781388718,-0.0451816158988849,-0.04,-0.02,0.018,0.48
2025-07-30 17:24:00.100522,1753867440.100522,-0.980526089668274,0.0482137128710746,9.079133987426758,-0.0637222602963447,-0.1105075702071189,0.6400004625320435,0.5088053345680237,-0.3006334006786346,0.5212602615356445,2.882846434387136,-7.938098567672373,152.69551928802045,-0.0972026735769842,-0.0451962291009226,-0.04,-0.02,0.018,0.48
2025-07-30 17:24:00.110532,1753867440.110532,-0.1372919827699661,-0.0015798534732311,10.392987251281738,-0.0239513851702213,0.1622695177793502,0.6100086569786072,0.5104866027832031,-0.2974770963191986,0.520963191986084,2.8578196037060164,-7.915887255333681,152.87477396091757,-0.0966541383618302,-0.0452128421167507,-0.04,-0.02,0.018,0.48
2025-07-30 17:24:00.121378,1753867440.121378,-1.8540270328521729,-0.1733258664608001,10.181600570678713,-0.0693276971578598,-0.0371401272714138,0.5732285976409912,0.5115926265716553,-0.2946750521659851,0.5209503173828125,2.8429534728554957,-7.898157685658855,153.19340395422734,-0.0961558272453244,-0.0453416599329779,-0.04,-0.02,0.018,0.48
2025-07-30 17:24:00.130524,1753867440.130524,0.180653303861618,-1.205006718635559,8.014288902282715,-0.0046406588517129,-0.0301071479916572,0.5793694257736206,0.5129525661468506,-0.2923444211483001,0.5196215510368347,2.836665166000083,-7.886438568178674,153.52554090206098,-0.0957845938399721,-0.0455068044218128,-0.04,-0.02,0.018,0.48
2025-07-30 17:24:00.143841,1753867440.143841,-1.705946922302246,-0.371917724609375,9.539554595947266,0.0578877218067646,0.008643171750009,0.5575085878372192,0.5141461491584778,-0.2900037169456482,0.5211254358291626,2.827509000422651,-7.869374804825972,154.0091529392393,-0.0952440549309405,-0.0457472650607002,-0.04,-0.02,0.018,0.48
2025-07-30 17:24:00.153511,1753867440.153511,0.086858183145523,0.1443359553813934,11.494637489318848,-0.044898509979248,0.0609645806252956,0.5544539093971252,0.5150282979011536,-0.2893678545951843,0.5211821794509888,2.820860387567182,-7.856984207972954,154.36032059563993,-0.0948515506769408,-0.045921871961528,-0.04,-0.02,0.018,0.48
2025-07-30 17:24:00.161408,1753867440.161408,-1.3124804496765137,-0.7122260928153992,9.913743019104004,-0.1934978365898132,0.0405264906585216,0.5172902345657349,0.5159177184104919,-0.2884599566459656,0.5215843319892883,2.815430881045846,-7.846865582046138,154.64709726950522,-0.0945310169877231,-0.0460644625029421,-0.04,-0.02,0.018,0.48
2025-07-30 17:24:00.171881,1753867440.171881,-0.4665951132774353,-1.319946050643921,8.856325149536133,-0.0458963736891746,-0.0699940249323844,0.5134971737861633,0.5161000490188599,-0.2853515148162842,0.5213093757629395,2.808230170552437,-7.833446075944839,155.02742572047077,-0.0941059193678249,-0.0462535686774696,-0.04,-0.02,0.018,0.48
2025-07-30 17:24:00.180725,1753867440.180725,-1.0902656316757202,0.0008901521214284,10.286382675170898,-0.0017353197326883,0.0027884521987289,0.5047978162765503,0.5168733596801758,-0.2819203734397888,0.521060585975647,2.8021493920846834,-7.822113715919623,155.34860139576313,-0.09374693750678,-0.0464132630236371,-0.04,-0.02,0.018,0.48
2025-07-30 17:24:00.191056,1753867440.191056,-0.6535516381263733,0.1832296550273895,10.662310600280762,-0.1033108010888099,-0.0464368611574173,0.4936046004295349,0.5175045132637024,-0.2819643020629883,0.5216724872589111,2.795046380579461,-7.808876285207867,155.72376956360495,-0.0933276075965242,-0.0465998034122011,-0.04,-0.02,0.018,0.48
2025-07-30 17:24:00.201149,1753867440.201149,-0.7238003015518188,-0.4189589619636535,9.139837265014648,-0.1326045840978622,0.0174709968268871,0.4821840822696686,0.5184024572372437,-0.281360000371933,0.5220395922660828,2.788106965702108,-7.795943739124904,156.0902968546725,-0.0929179356967098,-0.0467820474007792,-0.04,-0.02,0.018,0.48
2025-07-30 17:24:00.211401,1753867440.211401,-0.6805248260498047,-1.10897958278656,8.772281646728516,0.0072638452984392,0.00089355208911,0.4672349095344543,0.519511342048645,-0.2797091901302337,0.5212659239768982,2.7810582131987136,-7.782807427463379,156.46259916057815,-0.0925018089943259,-0.0469671628310313,-0.04,-0.02,0.018,0.48
2025-07-30 17:24:00.220971,1753867440.220971,-0.7761139273643494,0.0614531002938747,10.474870681762695,0.0258766021579504,0.0268749687820673,0.4543105363845825,0.5206489562988281,-0.2769702672958374,0.5218737721443176,2.774478284699033,-7.770544833275156,156.8101390340445,-0.0921133595563331,-0.0471399659326666,-0.04,-0.02,0.018,0.48
2025-07-30 17:24:00.231514,1753867440.231514,-1.0187687873840332,-0.0744444578886032,10.449182510375977,-0.113438457250595,-0.0734216496348381,0.4457840621471405,0.5207021236419678,-0.2762172818183899,0.5235306024551392,2.767229544333915,-7.757035816957186,157.19300433560613,-0.0916854264684396,-0.0473303334751258,-0.042,-0.017,0.012,0.49
2025-07-30 17:24:00.240914,1753867440.240914,-0.5652168989181519,-0.9336729645729064,9.39619255065918,-0.1283033341169357,-0.0494098290801048,0.4361072480678558,0.520116925239563,-0.2756923735141754,0.5242302417755127,2.760766493986209,-7.744991041146046,157.53437091734895,-0.0913038769918142,-0.0475000671046269,-0.042,-0.017,0.012,0.49
2025-07-30 17:24:00.251503,1753867440.251503,-0.6999980211257935,-0.8297638893127441,9.329997062683104,-0.0363398343324661,0.0187368672341108,0.4316803514957428,0.5196866989135742,-0.2737227082252502,0.522892951965332,2.7534861161970645,-7.731423064173412,157.91890725019056,-0.0908740761724426,-0.0476912655140173,-0.042,-0.017,0.012,0.49
2025-07-30 17:24:00.261019,1753867440.261019,-0.6511470079421997,0.0685506984591484,10.313511848449709,-0.046950452029705,0.0354575514793396,0.4155369699001312,0.5208185315132141,-0.2718314230442047,0.5227750539779663,2.746943398553624,-7.719229817490936,158.26448171380946,-0.0904878234963438,-0.0478630913783813,-0.042,-0.017,0.012,0.49
2025-07-30 17:24:00.271322,1753867440.271322,-0.9957453012466432,-0.1699735969305038,9.879015922546388,-0.1128636673092842,-0.0029713017866015,0.4138234257698059,0.5216907262802124,-0.2703163623809814,0.523247241973877,2.739859566212189,-7.706028129766723,158.6386368730515,-0.0900696258378131,-0.0480491280807746,-0.042,-0.017,0.012,0.49
2025-07-30 17:24:00.281890,1753867440.28189,-0.6899887919425964,-0.6734717488288879,9.104772567749023,-0.088293619453907,-0.0089454669505357,0.405832976102829,0.5222645401954651,-0.2693865001201629,0.5233434438705444,2.732593613777004,-7.692487036408648,159.022411284895,-0.0896406766265766,-0.0482399476492844,-0.042,-0.017,0.012,0.49
2025-07-30 17:24:00.291167,1753867440.291167,-0.7593708634376526,-0.5802430510520935,9.725184440612791,-0.0114187439903616,0.0142236705869436,0.3991494178771972,0.5222631692886353,-0.2688109278678894,0.523723840713501,2.72621514845934,-7.6805998963374496,159.35931023896694,-0.0892641206703798,-0.0484074598936225,-0.042,-0.017,0.012,0.49
2025-07-30 17:24:00.301802,1753867440.301802,-0.8721498847007751,-0.082419566810131,10.44564437866211,-0.0565045960247516,0.0142750302329659,0.3904768228530884,0.5233850479125977,-0.2660404443740845,0.524021327495575,2.710121907109952,-7.670461390708857,159.7029346719391,-0.0888265727621842,-0.0484053619130523,-0.042,-0.017,0.012,0.49
2025-07-30 17:24:00.311533,1753867440.311533,-0.7810851335525513,-0.4108640253543854,9.861583709716797,-0.1259078085422516,0.0002904959546867,0.3812083303928375,0.5230251550674438,-0.2639249563217163,0.5242708921432495,2.681230775528105,-7.666811984401995,159.9486613471674,-0.0884167270064373,-0.0480902815016178,-0.042,-0.017,0.012,0.49
2025-07-30 17:24:00.321251,1753867440.321251,-0.6786118745803833,-0.780576765537262,9.55583381652832,-0.0725815072655677,0.0034194099716842,0.3722873032093048,0.5233306884765625,-0.263067752122879,0.5249922275543213,2.6523785760113583,-7.663167495829955,160.19405689493917,-0.0880074335357956,-0.0477756256748367,-0.042,-0.017,0.012,0.49
2025-07-30 17:24:00.331595,1753867440.331595,-0.7423720359802246,-0.2413989305496215,10.06592845916748,-0.0337515510618686,-0.0265787430107593,0.3647597432136535,0.5242029428482056,-0.2615526914596557,0.5254644155502319,2.6216675473500826,-7.65928820777337,160.45526227363462,-0.0875717709617705,-0.0474406978607856,-0.042,-0.017,0.012,0.49
2025-07-30 17:24:00.346586,1753867440.346586,-0.8586123585700989,-0.0564352311193943,10.185420036315918,-0.1031730994582176,-0.046969685703516,0.3626030087471008,0.5247939229011536,-0.2612299919128418,0.5254905819892883,2.577159702673573,-7.653666163908207,160.83381320241887,-0.0869403885880329,-0.0469553049652872,-0.042,-0.017,0.012,0.49
2025-07-30 17:24:00.352771,1753867440.352771,-0.7680274248123169,-0.5880094766616821,9.495223999023438,-0.1040828451514244,-0.0306487791240215,0.365361213684082,0.5242646932601929,-0.2611033022403717,0.5270862579345703,2.558796509350132,-7.651346602511352,160.98999699290698,-0.0866798907662619,-0.0467550399638555,-0.042,-0.017,0.012,0.49
2025-07-30 17:24:00.362009,1753867440.362009,-0.6214258670806885,-0.6765245199203491,9.492629051208496,-0.0264529455453157,0.0025340267457067,0.3567306697368622,0.5242934823036194,-0.2600151896476745,0.5284677147865295,2.5313692234159952,-7.647882103033904,161.22327327577045,-0.086290810930468,-0.0464559239353892,-0.042,-0.017,0.012,0.49
2025-07-30 17:24:00.371679,1753867440.371679,-0.7754324078559875,-0.1806846559047699,10.071577072143556,-0.0177820473909378,0.0055321217514574,0.3512267172336578,0.5241730213165283,-0.2589151561260223,0.5267106890678406,2.50265930290079,-7.6442555865473185,161.46745870320115,-0.0858835358108468,-0.0461428197725233,-0.042,-0.017,0.012,0.49
2025-07-30 17:24:00.381048,1753867440.381048,-0.8438830375671387,-0.1903400123119354,9.970970153808594,-0.0941812768578529,-0.0215728934854269,0.3475947380065918,0.5252790451049805,-0.2561131417751312,0.5266978144645691,2.474843404171396,-7.640741999134983,161.7040402401305,-0.085488943165549,-0.0458394656172438,-0.042,-0.017,0.012,0.49
2025-07-30 17:24:00.391267,1753867440.391267,-0.7909030914306641,-0.5742256045341492,9.444258689880373,-0.0954000651836395,-0.0208778660744428,0.3404147922992706,0.5259088277816772,-0.2555814981460571,0.527690052986145,2.444503291912151,-7.636909563679274,161.96209087724026,-0.0850585423623438,-0.0455085829369816,-0.042,-0.017,0.012,0.49
2025-07-30 17:24:00.400914,1753867440.400914,-0.67414790391922,-0.5582993626594543,9.578893661499023,-0.0533776544034481,-0.0110935345292091,0.3344734609127044,0.5256320238113403,-0.2553505897521972,0.5283502340316772,2.4158620334026653,-7.633291720288652,162.20569231624768,-0.0846522412728171,-0.0451962275870498,-0.042,-0.017,0.012,0.49
2025-07-30 17:24:00.410907,1753867440.410907,-0.7564382553100586,-0.2737744450569153,10.002942085266112,-0.0514042750000953,0.0115581983700394,0.3328680694103241,0.5255245566368103,-0.2531309127807617,0.527664303779602,2.386192968374575,-7.62954404869865,162.458035520107,-0.0842313598565148,-0.0448726632022681,-0.042,-0.017,0.012,0.49
2025-07-30 17:24:00.421893,1753867440.421893,-0.8492814302444458,-0.2713589370250702,9.753886222839355,-0.0725349113345146,0.0138267325237393,0.3340824246406555,0.5258229374885559,-0.2525457441806793,0.5280402898788452,2.3535763920906527,-7.625424059875728,162.73544808267394,-0.0837686654369802,-0.0445169538993629,-0.042,-0.017,0.012,0.49
2025-07-30 17:24:00.430775,1753867440.430775,-0.675341784954071,-0.4597279131412506,9.590716361999512,-0.0509671904146671,-0.0002588487695902,0.3290229439735412,0.5267208814620972,-0.2519414126873016,0.5284073948860168,2.3272059347600123,-7.622093054545434,162.95973576021785,-0.083394577631404,-0.0442293634143064,-0.042,-0.017,0.012,0.49
2025-07-30 17:24:00.440736,1753867440.440736,-0.6966691017150879,-0.3937172293663025,10.011417388916016,-0.0275848340243101,-0.0027467077597975,0.3274085223674774,0.5278770923614502,-0.2503852546215057,0.5285648107528687,2.297631722399617,-7.618357364345736,163.21127221718314,-0.0829750417824488,-0.0439068334721348,-0.041,-0.012,0.005,0.49
2025-07-30 17:24:00.451513,1753867440.451513,-0.7841560244560242,-0.236390084028244,10.12672996520996,-0.0545198582112789,-0.0115767605602741,0.3199915885925293,0.5272747874259949,-0.2492531836032867,0.5293343663215637,2.2656352277343568,-7.614315701626568,163.48341082244272,-0.0825211437584069,-0.0435578866448002,-0.041,-0.012,0.005,0.49
2025-07-30 17:24:00.461665,1753867440.461665,-0.8320469260215759,-0.3968259692192077,9.784795761108398,-0.0781284123659133,-0.0091485902667045,0.3205806910991668,0.5278801321983337,-0.248386412858963,0.5300513505935669,2.2354947307907085,-7.610508480738508,163.73976367877546,-0.0820935746715588,-0.0432291809258517,-0.041,-0.012,0.005,0.49
2025-07-30 17:24:00.471697,1753867440.471697,-0.7615351676940918,-0.5159812569618225,9.64736270904541,-0.0484697334468364,-0.0114923678338527,0.3175802826881408,0.5278872847557068,-0.2481143772602081,0.5303966999053955,2.2057095774230517,-7.606746145357393,163.99309424450513,-0.0816710464414885,-0.0429043505068308,-0.041,-0.012,0.005,0.49
2025-07-30 17:24:00.482166,1753867440.482166,-0.7281355857849121,-0.2990761697292328,9.933491706848145,-0.0312283895909786,-0.0142146414145827,0.311436116695404,0.5269522070884705,-0.2463531792163849,0.5309304594993591,2.1755624490272782,-7.60369983213479,164.25198293805468,-0.0811962043955563,-0.0426404247230638,-0.041,-0.012,0.005,0.49
2025-07-30 17:24:00.491269,1753867440.491269,-0.8209614753723145,-0.2224003225564956,9.937485694885254,-0.046313788741827,-0.0317734777927398,0.3128075003623962,0.5268633365631104,-0.2453162521123886,0.5297940969467163,2.1582085018973385,-7.609389650996155,164.42523792079436,-0.0804618563831011,-0.0431222026559821,-0.041,-0.012,0.005,0.49
2025-07-30 17:24:00.501291,1753867440.501291,-0.7854970097541809,-0.3590433299541473,9.68895149230957,-0.0512970201671123,-0.0401365421712398,0.3109966516494751,0.5284081697463989,-0.2447874397039413,0.5310834646224976,2.1391028428625565,-7.615653801642747,164.61598130623378,-0.0796533830926281,-0.0436526113778653,-0.041,-0.012,0.005,0.49
2025-07-30 17:24:00.511787,1753867440.511787,-0.7031869888305664,-0.4237777888774872,9.695561408996582,-0.0339283235371112,-0.0224080719053745,0.3035380840301513,0.5298497676849365,-0.2437657564878463,0.5305456519126892,2.119093602284747,-7.622214208539733,164.81574569441506,-0.0788066739296331,-0.0442081052083271,-0.041,-0.012,0.005,0.49
2025-07-30 17:24:00.521255,1753867440.521255,-0.7371885180473328,-0.3164762854576111,9.97408676147461,-0.0292943511158227,-0.0032189455814659,0.3028042018413543,0.5300837159156799,-0.2424787729978561,0.5300605893135071,2.1010437882823854,-7.628132180479246,164.99594793832057,-0.0780428796793353,-0.0447092017032343,-0.041,-0.012,0.005,0.49
2025-07-30 17:24:00.531042,1753867440.531042,-0.833924412727356,-0.3414286673069,9.92363739013672,-0.0402397774159908,-0.0034040473401546,0.3006947040557861,0.5295056700706482,-0.2416818290948867,0.5311055779457092,2.082385829358208,-7.634249544200969,165.18222166193874,-0.0772533512250968,-0.0452271814352029,-0.041,-0.012,0.005,0.49
2025-07-30 17:24:00.541282,1753867440.541282,-0.816763162612915,-0.3729398250579834,9.61241626739502,-0.0367442518472671,-0.0253518782556056,0.2976695001125335,0.5297868847846985,-0.240489512681961,0.5315515995025635,2.0628647409822145,-7.640649901192057,165.37711253053004,-0.0764272986652651,-0.0457691232502656,-0.041,-0.012,0.005,0.49
2025-07-30 17:24:00.557555,1753867440.557555,-0.7408816814422607,-0.3133085370063782,9.62456512451172,-0.0352033339440822,-0.0219018645584583,0.2921205163002014,0.5297683477401733,-0.2393067479133606,0.5320020318031311,2.0318420776835344,-7.650821266440837,165.68683059951502,-0.0751145465309021,-0.0466303702326235,-0.041,-0.012,0.005,0.49
2025-07-30 17:24:00.561671,1753867440.561671,-0.7468302845954895,-0.2969329059123993,9.830599784851074,-0.0418784990906715,-0.0179438423365354,0.2907869219779968,0.5297268033027649,-0.2383644729852676,0.5317967534065247,2.023995281024168,-7.65339398671591,165.76516993117258,-0.0747825022133875,-0.0468482119401194,-0.041,-0.012,0.005,0.49
2025-07-30 17:24:00.571735,1753867440.571735,-0.7838169932365417,-0.3469425141811371,9.836816787719728,-0.038569439202547,-0.0079942718148231,0.2894569039344787,0.529418408870697,-0.2380704581737518,0.5318361520767212,2.00480962684272,-7.659684365280041,165.95671195669377,-0.0739706438557294,-0.0473808414764441,-0.041,-0.012,0.005,0.49
2025-07-30 17:24:00.580771,1753867440.580771,-0.7868233323097229,-0.3799591660499573,9.76713752746582,-0.023728122934699,-0.0089822886511683,0.2884459495544433,0.529392659664154,-0.2371597290039062,0.5319412350654602,1.9875833992367185,-7.665332308886698,166.12869183793924,-0.0732417004107686,-0.0478590736772142,-0.041,-0.012,0.005,0.49
2025-07-30 17:24:00.590772,1753867440.590772,-0.7516335248947144,-0.3155035376548767,9.858916282653809,-0.0169420707970857,-0.0131819415837526,0.283339262008667,0.529650866985321,-0.2362078875303268,0.5317314863204956,1.9685177377752692,-7.671583345574519,166.31903590333778,-0.0724349196538881,-0.0483883719918766,-0.041,-0.012,0.005,0.49
2025-07-30 17:24:00.601587,1753867440.601587,-0.7730273008346558,-0.2797645330429077,9.955324172973633,-0.0270079839974641,-0.0257965363562107,0.2821391522884369,0.5302720665931702,-0.2353726625442505,0.5327588319778442,1.947899897757765,-7.678343293275973,166.52487630895934,-0.0715624570536159,-0.0489607616776638,-0.041,-0.012,0.005,0.49
2025-07-30 17:24:00.611213,1753867440.611213,-0.827180802822113,-0.3354804813861847,9.792475700378418,-0.0274598654359579,-0.0308991037309169,0.282155692577362,0.5314238667488098,-0.2352397292852401,0.5318100452423096,1.929549192919647,-7.684359917950779,166.70808252862702,-0.0707859303347017,-0.0494702114632546,-0.041,-0.012,0.005,0.49
2025-07-30 17:24:00.621339,1753867440.621339,-0.7923145890235901,-0.3646740317344665,9.620847702026367,-0.01907255128026,-0.0337124317884445,0.2788829505443573,0.5316906571388245,-0.2345914542675018,0.531565248966217,1.9102449095718352,-7.690689191324445,166.90080890108766,-0.0699690520762749,-0.0500061343664501,-0.041,-0.012,0.005,0.49
2025-07-30 17:24:00.630899,1753867440.630899,-0.788671612739563,-0.2683641016483307,9.729230880737305,-0.0154989715665578,-0.020892983302474,0.2775737941265106,0.532271683216095,-0.2333895415067672,0.5320068597793579,1.892020106186141,-7.696664536833577,167.0827581701721,-0.0691978529915099,-0.0505120888929482,-0.041,-0.012,0.005,0.49
2025-07-30 17:24:00.640577,1753867440.640577,-0.8277005553245544,-0.267583429813385,9.886775016784668,-0.0238265506923198,-0.0201444048434495,0.2742606401443481,0.5328599214553833,-0.2319156229496002,0.5327938199043274,1.8735698619325685,-7.702713797383049,167.26695815221424,-0.0684171141719507,-0.0510243020783271,-0.041,-0.007,0.0,0.49
2025-07-30 17:24:00.651234,1753867440.651234,-0.8234542012214661,-0.3337717652320862,9.849003791809082,-0.0211090724915266,-0.0327083393931388,0.272052526473999,0.5331267714500427,-0.2312673479318618,0.5325490832328796,1.8532538217865784,-7.709374794304693,167.46978550661822,-0.0675574225069676,-0.0515883132369029,-0.041,-0.007,0.0,0.49
