time,timestamp,acce_x,acce_y,acce_z,gyro_x,gyro_y,gyro_z,magX,magY,magZ,roll,pitch,yaw,gt_px,gt_py,dvl_vx,dvl_vy,dvl_vz,depth
2025-07-30 17:43:10.137827,1753868590.137830,-0.7679798007011410,-0.2439339160919190,9.827349662780760,0.0060413707979023,0.0092839747667312,-0.0683760792016983,-0.0116994995623826,0.1260875016450880,0.6213414072990420,4.409899412693980,-8.260139077068730,-57.1269671919294,0.0,0.0,0.022,-0.119,-0.003,0.77
2025-07-30 17:43:10.147173,1753868590.147170,-0.9601412415504460,-0.3109070956707000,9.551067352294920,-0.0006615985766984,0.0475236400961875,-0.0663871392607688,-0.0108560752123594,0.1265144348144530,0.6204320788383480,4.402402598504270,-8.260674563963460,-57.051463566875900,-0.0007172929180759,-0.0004107592459391,0.022,-0.119,-0.003,0.77
2025-07-30 17:43:10.158077,1753868590.158080,-0.8469443917274480,-0.3439858555793760,9.849536895751950,0.0301995612680912,0.0283782910555601,-0.0625186786055564,-0.0099337324500083,0.1267836391925810,0.6210744976997380,4.393655996540830,-8.261299321441280,-56.96337279412530,-0.0015541651529792,-0.0008899958304551,0.022,-0.119,-0.003,0.77
2025-07-30 17:43:10.167890,1753868590.16789,-0.9120086431503300,-0.2934464812278750,9.891063690185550,0.0247006844729185,0.044604729861021,-0.0641656816005706,-0.0095636211335659,0.1269390434026720,0.6226569414138790,4.3857845328868900,-8.261861569020360,-56.88409591393210,-0.0023073044186702,-0.0013212825601391,0.022,-0.119,-0.003,0.77
2025-07-30 17:43:10.177311,1753868590.177310,-0.9222825169563290,-0.3752655684947970,9.823443412780760,0.0091713266447186,0.0317565277218818,-0.0656835585832595,-0.0108029227703809,0.1272674202919010,0.6220889091491700,4.37822766768555,-8.262401345274400,-56.80798748943300,-0.0030303429994063,-0.0017353320714666,0.022,-0.119,-0.003,0.77
2025-07-30 17:43:10.186972,1753868590.186970,-0.8676010966300960,-0.328081727027893,9.716230392456060,0.0047198669053614,0.0187394171953201,-0.0693111941218376,-0.0102435033768415,0.1276532411575320,0.6214943528175350,4.370478218507450,-8.262954877531070,-56.72993946925970,-0.00377180795689,-0.0021599334848518,0.022,-0.119,-0.003,0.77
2025-07-30 17:43:10.197838,1753868590.197840,-0.927815854549408,-0.2945857644081120,9.863512992858890,0.0098326383158564,0.007495385594666,-0.068547636270523,-0.0090659391134977,0.1268754601478580,0.6204404830932620,4.361762024540350,-8.263577463008470,-56.64215494845770,-0.0046057707638857,-0.0026375039795693,0.022,-0.119,-0.003,0.77
2025-07-30 17:43:10.207322,1753868590.207320,-0.8259577751159670,-0.2897682189941410,9.814661026000980,0.0029428582638502,0.0230494514107704,-0.0665977969765663,-0.0093900989741086,0.1272010058164600,0.6201695799827580,4.354154670590380,-8.264120845602820,-56.56553803015720,-0.0053336400928456,-0.0030543198286756,0.022,-0.119,-0.003,0.77
2025-07-30 17:43:10.217888,1753868590.217890,-0.8885353803634640,-0.3680504262447360,9.72584056854248,0.0076517355628311,0.0200269185006618,-0.0672306418418884,-0.0103453993797302,0.1275705099105840,0.619286835193634,4.345679063160280,-8.264726246322230,-56.48017655936330,-0.0061445836526234,-0.0035187083047351,0.022,-0.119,-0.003,0.77
2025-07-30 17:43:10.227257,1753868590.227260,-0.8372586965560910,-0.3200113177299500,9.774431228637700,0.0282177496701478,0.0144459977746009,-0.0697640255093574,-0.0097945686429739,0.128259927034378,0.6187272667884830,4.338163889425610,-8.265263044613440,-56.40448802747300,-0.0068636332064172,-0.0039304734916847,0.022,-0.119,-0.003,0.77
2025-07-30 17:43:10.238021,1753868590.238020,-0.8916693925857540,-0.245295375585556,9.838738441467280,0.0218159016221761,0.0157367661595344,-0.0680414736270904,-0.0095219351351261,0.1297558099031450,0.6192083358764650,4.329529739675020,-8.26587976978783,-56.31752980909820,-0.0076897460475492,-0.0044035486875117,0.022,-0.119,-0.003,0.77
2025-07-30 17:43:10.247841,1753868590.247840,-0.890821099281311,-0.3454881608486180,9.830618858337400,0.0053738122805953,0.0148071758449077,-0.0634514018893241,-0.008316982537508,0.1306417435407640,0.6199163794517520,4.321652729908540,-8.266442413517940,-56.238197071631300,-0.0084434159636134,-0.0048351392952092,0.027,-0.115,-0.005,0.76
2025-07-30 17:43:10.257983,1753868590.257980,-0.8523248434066770,-0.3720330893993380,9.754179954528810,0.014217440970242,0.0201200284063816,-0.0656123906373977,-0.008592402562499,0.1302970349788670,0.6201961636543270,4.313517347795880,-8.267023512421380,-56.1562621556581,-0.0092218068677469,-0.0052808864269185,0.027,-0.115,-0.005,0.76
2025-07-30 17:43:10.268073,1753868590.268070,-0.8821937441825870,-0.2903766334056850,9.745627403259280,0.015489681623876,0.0143963322043418,-0.0647438094019889,-0.0085350703448057,0.1293232142925260,0.6207118034362790,4.305423657149880,-8.267601633361990,-56.07474713229360,-0.0099962087449381,-0.0057243492342499,0.027,-0.115,-0.005,0.76
2025-07-30 17:43:10.278389,1753868590.278390,-0.8998342752456670,-0.2851038575172420,9.738941192626950,0.0031428968068212,0.0173833258450031,-0.0673827528953552,-0.0082754362374544,0.1296994686126710,0.6201217174530030,4.297148857242720,-8.268192690682420,-55.99140808002790,-0.0107879391015532,-0.0061777352305075,0.027,-0.115,-0.005,0.76
2025-07-30 17:43:10.287972,1753868590.287970,-0.8538038730621340,-0.3444565832614900,9.725852966308590,0.0025157611817121,0.001712950412184,-0.0666644498705864,-0.008268242701888,0.1299714893102650,0.6204670667648320,4.289461945264630,-8.268741755994840,-55.91398989876770,-0.0115234205186233,-0.0065989101573258,0.027,-0.115,-0.005,0.76
2025-07-30 17:43:10.298048,1753868590.298050,-0.7989217638969420,-0.3681887984275820,9.781856536865230,0.0130797894671559,0.0134975109249353,-0.0660741478204727,-0.0082338880747556,0.1287571787834170,0.6203269958496090,4.281379538088970,-8.269319070973030,-55.832588516063300,-0.0122967427967796,-0.0070417547300779,0.027,-0.115,-0.005,0.76
2025-07-30 17:43:10.307138,1753868590.307140,-0.8933281302452090,-0.3039223551750180,9.882349014282230,0.0152368508279323,0.0133526595309376,-0.0654666274785995,-0.0079756472259759,0.1297090351581570,0.6201172471046450,4.274088121308430,-8.269839886619680,-55.75915353624730,-0.0129943833527635,-0.0074412600109625,0.027,-0.115,-0.005,0.76
2025-07-30 17:43:10.317883,1753868590.317880,-0.8284656405448910,-0.2973781228065490,9.830796241760250,0.0105967158451676,0.0099419746547937,-0.0645340085029602,-0.0085564237087965,0.1316571831703190,0.6219230890274050,4.265469079933370,-8.270455532624060,-55.672347480790300,-0.0138190506290862,-0.0079135074011662,0.027,-0.115,-0.005,0.76
2025-07-30 17:43:10.327791,1753868590.327790,-0.8418770432472230,-0.325138509273529,9.780831336975100,0.0069494568742811,0.0063901147805154,-0.0685679763555526,-0.0085104666650295,0.1321381330490110,0.6232345700263980,4.257521500665970,-8.27102321703437,-55.5923040076692,-0.0145794726136904,-0.0083489645946227,0.027,-0.115,-0.005,0.76
2025-07-30 17:43:10.337954,1753868590.337950,-0.8552306294441220,-0.341035395860672,9.78918170928955,0.0120983570814132,-0.0020584969315677,-0.0667538270354271,-0.0073888376355171,0.1317585706710820,0.6212846636772160,4.249369288970440,-8.271605518051250,-55.51019959376220,-0.0153594737672318,-0.008795633838925,0.027,-0.115,-0.005,0.76
2025-07-30 17:43:10.347456,1753868590.347460,-0.8515282273292540,-0.3530561327934270,9.763693809509280,0.0141066284850239,-0.0014890152961015,-0.0673606917262077,-0.0062356479465961,0.1313159018754960,0.6199554204940800,4.241747400380720,-8.272149938834480,-55.43343629088250,-0.0160887337661349,-0.0092132460579979,0.027,-0.115,-0.005,0.76
2025-07-30 17:43:10.358181,1753868590.358180,-0.830739438533783,-0.3291568160057070,9.72689437866211,0.0110435811802744,-0.0047072106972336,-0.0684946328401565,-0.0064952801913022,0.1309396475553510,0.6205455660820010,4.233144423607500,-8.27276443736694,-55.346792028907900,-0.0169118639862046,-0.0096846132498175,0.027,-0.115,-0.005,0.76
2025-07-30 17:43:10.367875,1753868590.367880,-0.7482134699821470,-0.3263950943946840,9.761303901672360,0.0122817754745483,-0.0042404569685459,-0.0678368136286735,-0.0056045074015855,0.1312719285488130,0.6205673217773440,4.225368391338270,-8.273319868416420,-55.26847627904380,-0.0176558724058212,-0.0101106711819575,0.027,-0.115,-0.005,0.76
2025-07-30 17:43:10.377141,1753868590.377140,-1.0104594230651900,-0.2601351141929630,9.819448471069340,0.0119296461343765,-0.0040197023190557,-0.0685335323214531,-0.0056676417589187,0.1313981264829640,0.6193258762359620,4.217935835555890,-8.273850765423480,-55.19361982791930,-0.0183670170988851,-0.01051790963436,0.027,-0.115,-0.005,0.76
2025-07-30 17:43:10.387882,1753868590.387880,-0.8252000212669370,-0.4183714687824250,9.776124954223630,0.0142429182305932,0.0051510874181985,-0.071448229253292,-0.0068510062992572,0.1313282996416090,0.6196539402008060,4.209320045350250,-8.274466179201400,-55.1068465163814,-0.0191913733042994,-0.0109899788891765,0.027,-0.115,-0.005,0.76
2025-07-30 17:43:10.397863,1753868590.397860,-0.8218182325363160,-0.3931547105312350,9.719972610473630,0.0205880291759967,-0.0154127972200512,-0.06549683958292,-0.0077517591416835,0.1318752020597460,0.6200476288795470,4.201313945033310,-8.275038043687990,-55.02621365271770,-0.0199573945652539,-0.0114286425196038,0.027,-0.112,-0.005,0.75
2025-07-30 17:43:10.407934,1753868590.407930,-0.8663649559021000,-0.1501114964485170,9.8135347366333,0.0346303470432758,0.0045372839085757,-0.0723429024219513,-0.0077503696084022,0.1312995851039890,0.6196672320365910,4.193235554008110,-8.275615071798200,-54.94485271838400,-0.020730332579347,-0.0118712670427598,0.027,-0.112,-0.005,0.75
2025-07-30 17:43:10.417961,1753868590.417960,-0.7959617972373960,-0.4277821779251100,9.657681465148930,-0.0123478425666689,-0.0268601961433887,-0.0598971098661422,-0.0074004419147968,0.130063310265541,0.6198330521583560,4.185192543356000,-8.276189572738120,-54.8638481149337,-0.0214998854100257,-0.0123119530337603,0.027,-0.112,-0.005,0.75
2025-07-30 17:43:10.427647,1753868590.427650,-0.8971868753433230,-0.4802888631820680,9.881125450134280,0.0229627154767513,0.0153508530929684,-0.0633870363235473,-0.0067806765437126,0.1314741373062130,0.6212407946586610,4.177422822180350,-8.276744552995060,-54.78559592679470,-0.0222432899861143,-0.0127376651736779,0.027,-0.112,-0.005,0.75
2025-07-30 17:43:10.437923,1753868590.437920,-0.8559054732322690,-0.3442684710025790,9.684016227722170,0.0268416460603475,-0.0322376191616058,-0.0566804856061935,-0.0074159950017929,0.1332448869943620,0.6217700839042660,4.169180151476860,-8.277333315371660,-54.70258046149350,-0.0230319462302234,-0.0131892907731671,0.027,-0.112,-0.005,0.75
2025-07-30 17:43:10.447860,1753868590.44786,-0.7872304916381840,-0.2131899297237400,9.864749908447270,0.0004791726823896,-0.0110115185379982,-0.0626515224575996,-0.0058940816670656,0.133533239364624,0.6224037408828740,4.161209240287750,-8.277902666348330,-54.62230200260060,-0.0237946006060522,-0.0136260263499911,0.027,-0.112,-0.005,0.75
2025-07-30 17:43:10.457326,1753868590.457330,-0.8882017135620120,-0.4921644926071170,9.78673267364502,0.0122997825965285,-0.0231822542846202,-0.0541713163256645,-0.0052931178361177,0.1329767704010010,0.6220144629478460,4.153616229732280,-8.278445024414190,-54.54582954276640,-0.0245210975633576,-0.014042056307683,0.027,-0.112,-0.005,0.75
2025-07-30 17:43:10.468092,1753868590.468090,-0.8022022247314450,-0.2959822714328770,9.800872802734380,0.026850588619709,-0.007545253727585,-0.0621334388852119,-0.0046763662248849,0.1323887705802920,0.6219355463981630,4.144980358774350,-8.279061872532000,-54.45885398937570,-0.0253473750890882,-0.0145152258104796,0.027,-0.112,-0.005,0.75
2025-07-30 17:43:10.476712,1753868590.476710,-0.8275190591812130,-0.3191328942775730,9.737990379333500,0.0156943220645189,-0.0312805026769638,-0.0514281243085861,-0.0031458605080842,0.1323735415935520,0.6225341558456420,4.138065886401150,-8.27955576356973,-54.38921537805410,-0.0260089497179922,-0.0148940778649932,0.027,-0.112,-0.005,0.75
2025-07-30 17:43:10.487253,1753868590.487250,-0.7183493375778200,-0.252831757068634,9.697681427001950,0.0137718366459012,-0.0306620839983224,-0.0662299841642379,-0.0031616445630788,0.132405087351799,0.6222237944602970,4.12961055096861,-8.280159716288860,-54.30405807522590,-0.0268179536591651,-0.0153573556145203,0.027,-0.112,-0.005,0.75
2025-07-30 17:43:10.498120,1753868590.49812,-1.045238375663760,-0.3789584934711460,9.578394889831550,0.0120370257645845,-0.0300129111856222,-0.0563397817313671,-0.0040610041469335,0.1323763579130170,0.6222370862960820,4.120893592020460,-8.280782356407780,-54.21626584997230,-0.0276519896593157,-0.0158349680234465,0.027,-0.112,-0.005,0.75
2025-07-30 17:43:10.508083,1753868590.508080,-0.4276750683784490,-0.1868537813425060,10.04581069946290,0.0142501285299658,-0.0160091444849967,-0.0574862696230411,-0.003187408670783,0.1333158165216450,0.6223288774490360,4.112901835098020,-8.281353196365870,-54.135777444775,-0.0284166385486157,-0.0162728457624594,0.027,-0.112,-0.005,0.75
2025-07-30 17:43:10.517907,1753868590.517910,-1.2561248540878300,-0.3118669986724850,10.14046859741210,0.0447810962796211,0.0098984828218817,-0.0548511855304241,-0.0023182220757007,0.1328320205211640,0.6213144659996030,4.105021765407380,-8.281916058662050,-54.05641388950190,-0.0291706012372995,-0.016704604026992,0.027,-0.112,-0.005,0.75
2025-07-30 17:43:10.527765,1753868590.527770,-0.5292506814002990,-0.2755749821662900,9.276617050170900,-0.0136309387162327,-0.0885012820363044,-0.0595176741480827,-0.0026108138263225,0.1330944597721100,0.62166428565979,4.097114156399310,-8.282480888052950,-53.97677297397360,-0.0299271988795599,-0.0171378712030402,0.027,-0.112,-0.005,0.75
2025-07-30 17:43:10.537000,1753868590.537,-1.0463240146637000,-0.6732219457626340,9.81711769104004,0.0649463236331939,0.0214792247861623,-0.0576900281012058,-0.0023038331419229,0.1333760768175130,0.6220052242279050,4.089706462500720,-8.283010009210620,-53.90216691752400,-0.0306359647950894,-0.0175437474436578,0.027,-0.112,-0.005,0.75
2025-07-30 17:43:10.547068,1753868590.547070,-0.8718919157981870,-0.1798785477876660,9.729144096374510,0.0434551462531089,-0.0896349474787712,-0.0528412982821464,-0.0011664237827062,0.1329649686813350,0.6203656792640690,4.081630366418640,-8.283586873396270,-53.82082909654480,-0.0314086832297177,-0.0179862462241875,0.027,-0.112,-0.005,0.75
2025-07-30 17:43:10.557573,1753868590.557570,-0.6295888423919680,-0.2806729078292850,9.913874626159670,-0.0123053435236215,0.0461544804275035,-0.0570099838078022,-0.0008422639220952,0.1326394081115720,0.6206365823745730,4.073203909020350,-8.28418876339802,-53.73596263676210,-0.0322149241292929,-0.0184479417123336,0.027,-0.112,-0.005,0.75
2025-07-30 17:43:10.567852,1753868590.567850,-1.1692664623260500,-0.5487913489341740,9.481504440307620,0.0030617760494351,-0.0777485519647598,-0.0494835190474987,-0.0007819142192602,0.1336644291877750,0.6226388216018680,4.06495875212848,-8.284777703359560,-53.65292213199350,-0.0330038182511554,-0.0188997035330013,0.027,-0.112,-0.005,0.75
2025-07-30 17:43:10.577279,1753868590.577280,-0.4140343070030210,-0.4310343265533450,9.822233200073240,0.0418783873319625,0.0258793625980615,-0.0618256889283657,-0.000487932935357,0.1328263580799100,0.6219086050987240,4.057396914550380,-8.285317834783480,-53.576763628559400,-0.0337273325873984,-0.0193140254866859,0.027,-0.112,-0.005,0.75
2025-07-30 17:43:10.587252,1753868590.587250,-1.4119243621826200,-0.1887310892343520,9.977989196777340,0.0221687201410532,-0.0814386159181594,-0.0490226708352565,0.0001044478267431,0.1325734704732900,0.6215543746948240,4.049397316572280,-8.285889234817150,-53.49619625273380,-0.0344927317065362,-0.0197523328463386,0.027,-0.112,-0.005,0.75
2025-07-30 17:43:10.597630,1753868590.59763,-0.3126603662967680,-0.2572595477104190,9.84768295288086,0.0076308213174343,-0.0277306828647851,-0.0547926016151905,0.0003884509205818,0.1326145827770230,0.6212396025657650,4.041072601652270,-8.286483857496760,-53.41235448500540,-0.0352892379165089,-0.0202084537447184,0.025,-0.106,-0.003,0.74
2025-07-30 17:43:10.607080,1753868590.60708,-1.2447798252105700,-0.4899733662605290,9.432576179504400,0.0464274436235427,-0.0249100774526596,-0.0450579486787319,0.0001130364835262,0.1322698891162870,0.6215193867683410,4.033492404529220,-8.287025300317150,-53.3360110747345,-0.0360145088884696,-0.0206237816394134,0.025,-0.106,-0.003,0.74
2025-07-30 17:43:10.617734,1753868590.617730,-0.4753770232200620,-0.2917946279048920,9.86190414428711,0.0482972040772438,-0.0224984157830476,-0.0520104505121707,-0.0007605627179145,0.1313304454088210,0.621427595615387,4.0249464188434700,-8.287635728056390,-53.24994079439930,-0.0368321862184988,-0.0210920262226797,0.025,-0.106,-0.003,0.74
2025-07-30 17:43:10.627851,1753868590.627850,-1.176119089126590,-0.3195183277130130,9.93388557434082,0.0209908410906791,-0.0338300727307796,-0.048786349594593,-0.0001637730747461,0.1325007975101470,0.6221795082092290,4.016831117483100,-8.28821539261993,-53.16820812027890,-0.0376086558023161,-0.0215366731064088,0.025,-0.106,-0.003,0.74
2025-07-30 17:43:10.637864,1753868590.637860,-0.658125102519989,-0.4053385853767400,9.672069549560550,0.0170688014477491,-0.0543130040168762,-0.0505803674459457,0.0004587788134813,0.1327604204416280,0.6228264570236210,4.008799199056070,-8.288789101257810,-53.08731523137590,-0.0383771473322487,-0.0219767513413821,0.025,-0.106,-0.003,0.74
2025-07-30 17:43:10.647509,1753868590.647510,-0.9978058934211730,-0.4972201883792880,9.665888786315920,0.0310769900679588,-0.0309024862945079,-0.0454069413244724,0.0002091284841299,0.1315049976110460,0.6230011582374570,4.001062563310380,-8.289341718269020,-53.00939626076580,-0.0391173863043876,-0.0224006506917705,0.025,-0.106,-0.003,0.74
2025-07-30 17:43:10.657649,1753868590.657650,-0.8403196930885320,-0.2682381570339200,9.800970077514650,0.0401099398732185,-0.0446318574249744,-0.0485209263861179,0.0002263039350509,0.1308978497982030,0.6229311227798460,3.9929289024050600,-8.28992269422904,-52.92747867980860,-0.0398956125239226,-0.0228463035165101,0.025,-0.106,-0.003,0.74
2025-07-30 17:43:10.668118,1753868590.668120,-0.8587141633033750,-0.2852815985679630,9.852160453796390,0.0158412475138902,-0.0164916366338729,-0.0430721901357173,0.0005390886217355,0.1320270597934720,0.6239978075027470,3.9845313230410200,-8.290522521513420,-52.84290306307130,-0.0406990903819001,-0.0233064167432751,0.025,-0.106,-0.003,0.74
2025-07-30 17:43:10.677826,1753868590.677830,-0.9018158316612240,-0.4801038205623630,9.574417114257810,0.0346519015729427,-0.0301243066787719,-0.0449447035789489,0.0011616423726081,0.1322866976261140,0.6246446967124940,3.9767441985467100,-8.291078744864940,-52.76447559865990,-0.0414441601022628,-0.0237330824314422,0.025,-0.106,-0.003,0.74
2025-07-30 17:43:10.687854,1753868590.687850,-0.8974103927612310,-0.3371305167675020,9.69869899749756,0.0408759489655494,-0.0350187942385673,-0.0433990843594074,0.0017512384802103,0.133185014128685,0.6250512599945070,3.9687002316683000,-8.291653314106760,-52.683461364645200,-0.0422138044243851,-0.0241738208152036,0.025,-0.106,-0.003,0.74
2025-07-30 17:43:10.697539,1753868590.697540,-0.8836966753005980,-0.3007473349571230,9.90751838684082,0.0359305068850517,-0.0340158231556415,-0.0394398756325244,0.0011300761252641,0.1323497891426090,0.624023973941803,3.960931466718940,-8.292208226061800,-52.605218807070700,-0.0429571175090301,-0.0245994805623603,0.025,-0.106,-0.003,0.74
2025-07-30 17:43:10.706993,1753868590.706990,-0.8501408696174620,-0.2764818072319030,9.762322425842280,0.0160116404294967,-0.049962218850851,-0.0393760874867439,0.0006279852241277,0.130990132689476,0.6251341700553890,3.953348018426470,-8.292749901108650,-52.52884265288070,-0.0436826995518992,-0.0250149865924426,0.025,-0.106,-0.003,0.74
2025-07-30 17:43:10.717869,1753868590.717870,-0.8144159913063050,-0.2765284478664400,9.659329414367680,0.0265024974942207,-0.0302512738853693,-0.043569590896368,-0.000531006604433,0.1305851936340330,0.6257375478744510,3.9446239834037100,-8.293373046661640,-52.44097916145050,-0.0445174125887327,-0.0254929867077999,0.025,-0.106,-0.003,0.74
2025-07-30 17:43:10.727041,1753868590.727040,-0.7970296144485470,-0.2160074412822720,9.703126907348630,0.021530158817768,-0.0326739475131034,-0.0427316986024379,6.71744346618652E-05,0.1311799138784410,0.6261091232299810,3.93726677825375,-8.29389856147899,-52.36688159880230,-0.0452213477560384,-0.0258960966106386,0.025,-0.106,-0.003,0.74
2025-07-30 17:43:10.737417,1753868590.737420,-1.094900369644170,-0.2536198496818540,10.174822807312000,0.0490409657359123,-0.0015020190039649,-0.0492764376103878,-0.0005166158080101,0.1311292350292210,0.6264283061027530,3.928943784541090,-8.294493061215180,-52.28305716608990,-0.0460176892814126,-0.0263521232020487,0.025,-0.106,-0.003,0.74
2025-07-30 17:43:10.747197,1753868590.747200,-0.7340485453605650,-0.2984076738357540,9.543808937072750,0.0313096232712268,-0.0579478442668914,-0.0432505197823047,4.99971210956574E-05,0.1317870616912840,0.6261791586875920,3.921098903978270,-8.295053410001450,-52.204048015587400,-0.0467682850849707,-0.0267819534129779,0.025,-0.106,-0.003,0.74
2025-07-30 17:43:10.758196,1753868590.758200,-0.8987534046173100,-0.3723376989364620,9.64189624786377,0.04570072889328,-0.0269371140748262,-0.0466208048164844,0.0003254152834415,0.1321317851543430,0.6258993744850160,3.9122759951561200,-8.295683617970880,-52.115188723796200,-0.0476124583370758,-0.0272653709398186,0.025,-0.106,-0.003,0.74
2025-07-30 17:43:10.768203,1753868590.768200,-0.8273129463195800,-0.3445178568363190,9.694121360778810,0.0564864240586757,-0.0345232971012592,-0.0361873656511306,0.0006265938282012,0.1315657496452330,0.625514566898346,3.904249049105850,-8.296256971438880,-52.03434591382820,-0.0483804741115014,-0.0277051767324349,0.025,-0.106,-0.003,0.74
2025-07-30 17:43:10.777088,1753868590.777090,-1.1555014848709100,-0.2831366062164310,9.952354431152340,0.0440438129007816,0.0031240619719028,-0.025965329259634,0.0012045819312334,0.1307688057422640,0.6244696378707890,3.897122103248860,-8.296766039158750,-51.96256739109240,-0.0490623781391805,-0.0280956704584341,0.025,-0.106,-0.003,0.74
2025-07-30 17:43:10.787112,1753868590.787110,-0.531593918800354,-0.685364305973053,9.65913200378418,0.0233050510287284,-0.0492697320878505,-0.0249755196273326,0.0014799982309341,0.1311134994030000,0.6241898536682130,3.889081387539870,-8.297340376174100,-51.881585900996700,-0.0498317113903945,-0.0285362307068082,0.025,-0.106,-0.003,0.74
2025-07-30 17:43:10.797388,1753868590.797390,-1.0468690395355200,-0.5269953608512880,9.47140407562256,0.0350460112094879,-0.025801146402955,-0.0044910670258104,0.0015043690800666,0.1307783722877500,0.6244651675224300,3.880838525591120,-8.297929152211090,-51.79856850958270,-0.0506203859327923,-0.0289878667848497,0.023,-0.099,0.0,0.74
2025-07-30 17:43:10.806938,1753868590.806940,-0.6987181901931760,-0.3705190122127530,9.898021697998050,0.0456064045429229,-0.0146576277911663,-0.0047419588081538,0.0025070216506719,0.1303142309188840,0.6262789964675900,3.8731781967041500,-8.29847631873069,-51.72141805801340,-0.0513533238877294,-0.0294075851929133,0.023,-0.099,0.0,0.74
2025-07-30 17:43:10.817948,1753868590.817950,-1.2382233142852800,0.0152453565970063,9.937906265258790,0.0284421499818563,-0.0426914095878601,0.0136989783495664,0.0034866910427808,0.1296095997095110,0.6274371147155760,3.864346490600040,-8.299107155077590,-51.6324701650294,-0.0521983388611159,-0.0298914847331549,0.023,-0.099,0.0,0.74
2025-07-30 17:43:10.828098,1753868590.828100,-0.3929567635059360,-0.551911473274231,9.761157035827640,0.0047013433650135,-0.0102802207693457,0.0247797667980194,0.0047174077481031,0.1295847743749620,0.6280401349067690,3.8562047973938000,-8.299688704773570,-51.550471687331,-0.0529773336087774,-0.0303375776570866,0.023,-0.099,0.0,0.74
2025-07-30 17:43:10.837447,1753868590.837450,-1.2077367305755600,-0.3918281197547910,9.319541931152340,0.0531695634126663,-0.0169706363230943,0.0278691668063402,0.004102049395442,0.1295971870422360,0.6277386546134950,3.848705688260960,-8.300224355592860,-51.4749449489229,-0.0536948461063181,-0.030748462645652,0.023,-0.099,0.0,0.74
2025-07-30 17:43:10.847827,1753868590.847830,-0.6922247409820560,-0.182752177119255,10.219268798828100,0.0693526417016983,-0.0206436701118946,0.0423255749046802,0.0031725149601697,0.1290559470653530,0.6267507672309880,3.840379443378880,-8.300819087555510,-51.39108777229140,-0.0544914987026006,-0.0312046673724493,0.023,-0.099,0.0,0.74
2025-07-30 17:43:10.857056,1753868590.857060,-1.2613215446472200,-0.1876607835292820,9.833038330078120,0.0437060855329036,-0.0249757580459117,0.0505979061126709,0.0034651067107915,0.1287935227155690,0.6264010071754460,3.832976530611790,-8.30134786720368,-51.31652986866400,-0.055199807160912,-0.0316102816492621,0.023,-0.099,0.0,0.74
2025-07-30 17:43:10.867223,1753868590.867220,-0.5772899389266970,-0.3052756190299990,9.639033317565920,0.0387111231684684,-0.0526883415877819,0.0646293014287948,0.004671448841691,0.129103809595108,0.6267286539077760,3.824821067746840,-8.301930400447020,-51.23439271083790,-0.0559801193853618,-0.0320571290289516,0.023,-0.099,0.0,0.74
2025-07-30 17:43:10.876863,1753868590.876860,-1.1282944679260300,-0.602176308631897,9.42952823638916,0.0507081635296344,0.0062132999300956,0.0683415234088897,0.0046484712511301,0.1288633495569230,0.6260729432106020,3.817088448151610,-8.302482730590250,-51.15651418859850,-0.0567199740934375,-0.0324808083297439,0.023,-0.099,0.0,0.74
2025-07-30 17:43:10.887931,1753868590.887930,-0.9963387846946720,-0.1268750578165050,9.909747123718260,0.0550025552511215,-0.0507546439766883,0.0811846628785133,0.004087658599019,0.1290531307458880,0.6270478963851930,3.808210269449340,-8.303116886409480,-51.06709825018370,-0.0575694355509845,-0.0329672541581682,0.023,-0.099,0.0,0.74
2025-07-30 17:43:10.898272,1753868590.898270,-0.9372115135192870,-0.4284071326255800,9.734621047973630,0.0333005785942077,0.0131969088688492,0.0871535018086433,0.0032126680016517,0.1286892890930180,0.6273365020751950,3.7999153887898800,-8.303709378069820,-50.98355695606520,-0.0583630872279159,-0.033421740402406,0.023,-0.099,0.0,0.74
2025-07-30 17:43:10.907586,1753868590.907590,-1.079918384552000,-0.4318546950817110,9.63324737548828,0.049438502639532,-0.0306878574192523,0.1088749691843990,0.0035927649587392,0.12796550989151,0.6285035014152530,3.792444201465000,-8.30424303447363,-50.90831143013810,-0.0590779281753025,-0.0338310955223514,0.023,-0.099,0.0,0.74
2025-07-30 17:43:10.917202,1753868590.917200,-0.923548936843872,-0.4953339099884030,9.692449569702150,0.0604575872421264,0.0240386258810758,0.1180315241217610,0.0032600183039903,0.1285946369171140,0.6282675862312320,3.784730897641030,-8.304793984918490,-50.83062744529990,-0.0598159347562168,-0.0342537164893722,0.023,-0.099,0.0,0.74
2025-07-30 17:43:10.927643,1753868590.927640,-1.0942260026931800,-0.2497352659702300,9.721169471740720,0.0562817826867103,-0.0417425781488418,0.124800331890583,0.0023864209651947,0.1276551932096480,0.6281757950782780,3.776355693972400,-8.305392213938410,-50.74627718377010,-0.0606172717144133,-0.0347126037255308,0.023,-0.099,0.0,0.74
2025-07-30 17:43:10.937607,1753868590.937610,-0.8531429767608640,-0.4410135149955750,9.640832901000980,0.0323659181594848,-0.0077823470346629,0.1457722038030620,0.0024523418396711,0.1263777911663060,0.6286564469337460,3.768363172068910,-8.30596310853801,-50.66578107412130,-0.0613819937968682,-0.0351505233787524,0.023,-0.099,0.0,0.74
2025-07-30 17:43:10.947718,1753868590.947720,-1.0297361612319900,-0.5842731595039370,9.632684707641600,0.0394735559821128,0.0051153036765754,0.1577091515064240,0.0035941582173109,0.127389907836914,0.6281230449676510,3.7602528430853000,-8.306542417931680,-50.58409847893590,-0.0621579876251786,-0.0355948978201246,0.023,-0.099,0.0,0.74
2025-07-30 17:43:10.956981,1753868590.956980,-0.9019133448600770,-0.4863880574703220,9.865386962890620,0.0574911870062351,-0.0006926973583176,0.1728955805301670,0.0035869628190994,0.1271178722381590,0.6277776956558230,3.752822582246050,-8.307073151014180,-50.509265141166,-0.0628689127387779,-0.0360020105299008,0.023,-0.099,0.0,0.74
2025-07-30 17:43:10.967464,1753868590.967460,-0.982025384902954,-0.3515262007713320,9.834311485290530,0.0455955602228641,-0.008343088440597,0.184493213891983,0.0030433274805545,0.1267005205154420,0.6286826133728030,3.7444137194116700,-8.307673784260970,-50.42457588376860,-0.0636734701957902,-0.0364627419912452,0.023,-0.099,0.0,0.74
2025-07-30 17:43:10.977866,1753868590.977870,-0.9555589556694030,-0.5717130899429320,9.613179206848150,0.05324587225914,-0.0180962141603231,0.1967566162347790,0.0012401919811964,0.1252198368310930,0.6276029944419860,3.736069879965670,-8.308269772978580,-50.34054150475180,-0.0644718062346356,-0.0369199107448442,0.023,-0.099,0.0,0.74
2025-07-30 17:43:10.988135,1753868590.988140,-0.9073890447616580,-0.5372292995452880,9.770564079284670,0.0638289898633956,-0.0029032991733402,0.2098066508769990,0.0015327837318181,0.1249573901295660,0.6272531747817990,3.727832564129460,-8.308858152864540,-50.25757997061140,-0.0652599501266603,-0.037371242944872,0.023,-0.099,0.0,0.74
2025-07-30 17:43:10.997238,1753868590.997240,-0.969026505947113,-0.4203998446464540,9.845938682556150,0.0654210597276687,-0.0113518824800848,0.2210311144590380,0.0025024749338626,0.1251319199800490,0.6288267374038700,3.72053082010488,-8.309379706171710,-50.184040980699600,-0.0659585787902353,-0.037771314067575,0.017,-0.089,0.0,0.74
2025-07-30 17:43:11.007151,1753868591.007150,-1.0022380352020300,-0.4147878885269170,9.6707124710083,0.0413811057806015,-0.0088289231061935,0.2401085942983630,0.0031909476965665,0.1241141408681870,0.6299542784690860,3.7125792246870200,-8.30994767745,-50.10395705920790,-0.0667193850389028,-0.0382069913106275,0.017,-0.089,0.0,0.74
2025-07-30 17:43:11.016931,1753868591.016930,-1.0134214162826500,-0.6215662956237790,9.508761405944820,0.0424324795603752,-0.0031570128630846,0.243970587849617,0.0013792254030704,0.1229370683431630,0.6289096474647520,3.704734152878950,-8.31050803989665,-50.02494598259260,-0.0674699991407496,-0.0386368320001089,0.017,-0.089,0.0,0.74
2025-07-30 17:43:11.027750,1753868591.02775,-0.9040594100952150,-0.515599250793457,9.77773666381836,0.06829634308815,-0.0150578496977686,0.2539839744567870,0.0010866336524486,0.1231995075941090,0.629259467124939,3.696055825473310,-8.311127920618820,-49.937542832141600,-0.0683003388865775,-0.0391123277414923,0.017,-0.089,0.0,0.74
2025-07-30 17:43:11.038086,1753868591.038090,-0.9924796223640440,-0.4190754294395450,9.841975212097170,0.0621593780815601,-0.0052058780565857,0.2629011273384090,0.0017435383051633,0.1222448199987410,0.6297662854194640,3.687764960964320,-8.311720125411180,-49.85404198639370,-0.0690936062994456,-0.039566593936134,0.017,-0.089,0.0,0.74
2025-07-30 17:43:11.047324,1753868591.047320,-1.0051507949829100,-0.5078034400939940,9.647664070129400,0.0401415824890136,-0.0179271697998046,0.278168648481369,0.0015226677060127,0.1220775097608570,0.63132244348526,3.680354780877360,-8.31224942415378,-49.77941089047670,-0.0698026100927286,-0.03997260639793,0.017,-0.089,0.0,0.74
2025-07-30 17:43:11.057425,1753868591.057430,-0.8856677412986760,-0.6132164001464840,9.571256637573240,0.0513436906039714,0.0041079940274357,0.2831881046295170,-0.0002646818757057,0.1205652803182600,0.6305531859397890,3.6722522929494000,-8.312828173471870,-49.69780726591950,-0.0705778536912012,-0.0404165512186623,0.017,-0.089,0.0,0.74
2025-07-30 17:43:11.067933,1753868591.067930,-0.98782080411911,-0.5399289727211000,9.793322563171390,0.0680563896894455,-0.0048462231643497,0.2923280596733090,-0.001171238720417,0.1202645376324650,0.6302210688591000,3.6638233493627300,-8.313430241058560,-49.6129157666693,-0.0713843324685298,-0.0408783829279868,0.017,-0.089,0.0,0.74
2025-07-30 17:43:11.077901,1753868591.077900,-0.9289584159851070,-0.4598445296287540,9.79517936706543,0.0545921027660369,-0.0085133025422692,0.3082763254642490,0.0003290884196758,0.1197368055582050,0.6298185586929320,3.655827767535090,-8.314001354224240,-49.53238883921430,-0.0721493473236043,-0.0413164702380436,0.017,-0.089,0.0,0.74
2025-07-30 17:43:11.087702,1753868591.087700,-0.9557026624679560,-0.5702045559883120,9.577378273010250,0.0459730960428714,-0.0101581299677491,0.3142579793930050,0.0015138480812311,0.1192310526967050,0.6291100978851320,3.64796586614414,-8.31456291878433,-49.45320826466520,-0.0729015716748591,-0.0417472330401179,0.017,-0.089,0.0,0.74
2025-07-30 17:43:11.097389,1753868591.097390,-0.9807126522064210,-0.5393742322921750,9.671424865722660,0.0622896775603294,-0.0064067761413753,0.3157773911952970,0.0003362856805324,0.1200088337063790,0.6301639080047610,3.6401955712327100,-8.315117940022410,-49.37495029818760,-0.0736450311458139,-0.0421729766156921,0.017,-0.089,0.0,0.74
2025-07-30 17:43:11.107785,1753868591.107790,-0.9564285278320310,-0.5338996648788450,9.769659042358400,0.0549429133534431,-0.0040643312968313,0.3243557214736940,-0.0020046811550855,0.1189584285020830,0.630715012550354,3.631856512918210,-8.315713587230520,-49.290964071992800,-0.0744429097274411,-0.0426298834054863,0.017,-0.089,0.0,0.74
2025-07-30 17:43:11.117837,1753868591.117840,-1.0113362073898300,-0.5627931356430050,9.737404823303220,0.0469845794141292,-0.0090180840343236,0.3276929259300230,-0.0022199805825948,0.1164886951446530,0.6307495832443240,3.6237934215138000,-8.316289522510340,-49.209757226689800,-0.075214383878436,-0.0430716696444669,0.017,-0.089,0.0,0.74
2025-07-30 17:43:11.127405,1753868591.127410,-0.8291440010070800,-0.547694742679596,9.572592735290530,0.0551820583641529,-0.001094241044484,0.3270492553710940,-0.0012976415455341,0.1167578846216200,0.6313920617103580,3.61611855798708,-8.316837727218820,-49.13246039054130,-0.0759487125033163,-0.0434921844224971,0.017,-0.089,0.0,0.74
2025-07-30 17:43:11.137341,1753868591.137340,-1.247588872909550,-0.3514111042022710,9.747599601745600,0.0461197234690189,-0.0185009911656379,0.3046543598175050,-0.001693520694971,0.1175132021307950,0.6299147605896000,3.6081484117790100,-8.317407023553970,-49.05218963609980,-0.0767112936859903,-0.0439288780851123,0.017,-0.089,0.0,0.74
2025-07-30 17:43:11.147105,1753868591.147110,-0.6387591361999510,-0.8252813220024110,9.583189010620120,0.0391063094139099,0.0066344277001917,0.3059788942337040,-0.0010939463973045,0.1175323501229290,0.6299058794975280,3.6003163446486100,-8.317966457094780,-48.97330953516070,-0.0774606635042037,-0.0443580062330446,0.017,-0.089,0.0,0.74
2025-07-30 17:43:11.162845,1753868591.162850,-1.2940785884857200,-0.4798333644866940,9.937925338745120,0.0552985034883022,-0.0094082690775394,0.2901759147644040,-0.0016361903399229,0.1165393739938740,0.6304304003715520,3.5876907150777800,-8.318868288059480,-48.84615141478360,-0.0786686799293451,-0.0450497792916776,0.017,-0.089,0.0,0.74
2025-07-30 17:43:11.171674,1753868591.171670,-0.5435659885406490,-0.1753928512334820,9.82705783843994,0.0482048653066158,0.038573320955038,0.2785131335258480,-0.0016032326966524,0.1159006804227830,0.6306707262992860,3.5806085206116100,-8.31937415925044,-48.77482360246260,-0.0793463021574622,-0.0454378210364638,0.017,-0.089,0.0,0.74
2025-07-30 17:43:11.179701,1753868591.179700,-1.4366382360458400,-0.5001998543739320,9.809255599975590,-0.0055920947343111,-0.0285244788974523,0.2705046832561490,-0.0021698456257581,0.1152428463101390,0.630919873714447,3.5741696751999000,-8.31983407692319,-48.70997523388350,-0.0799623689423036,-0.045790612931675,0.017,-0.089,0.0,0.74
2025-07-30 17:43:11.188549,1753868591.188550,-0.5111212134361270,-0.9441549181938170,9.1925630569458,0.0523744411766529,-0.0043335910886526,0.2618190348148350,-0.0033432301133871,0.1142938211560250,0.6308325529098510,3.5670723723582000,-8.320341027284170,-48.63849525864470,-0.0806414367352301,-0.0461794824820844,0.017,-0.089,0.0,0.74
2025-07-30 17:43:11.204751,1753868591.204750,-1.2488847970962500,-0.414906769990921,9.81935691833496,0.0721091777086258,-0.0073945359326899,0.2495531588792800,-0.0057301539927721,0.112762451171875,0.6300721168518070,3.5540761094736000,-8.321269332065240,-48.50760433149840,-0.0818849152439233,-0.0468915629748661,0.017,-0.089,0.0,0.74
2025-07-30 17:43:11.207964,1753868591.207960,-0.7363973259925840,-0.0997636318206787,10.071758270263700,0.0130359232425689,0.0069974493235349,0.2456759065389630,-0.0062494203448295,0.1120099574327470,0.6312524080276490,3.5514988883506200,-8.321453419345690,-48.48164803427340,-0.0821315029828006,-0.0470327719442099,0.017,-0.089,0.0,0.74
2025-07-30 17:43:11.219606,1753868591.219610,-1.140619158744810,-0.8655222058296200,9.601278305053710,-0.0111950142309069,0.0146148409694433,0.2404254972934720,-0.0050962325185537,0.1115673035383220,0.6299231648445130,3.5421603823076600,-8.322120455699510,-48.3875959421468,-0.0830250084213121,-0.0475444396477611,0.017,-0.089,0.0,0.74
2025-07-30 17:43:11.288085,1753868591.288090,-0.7054348587989810,-0.7200342416763310,9.584714889526370,0.0499706827104091,-0.0042550079524517,0.232506975531578,-0.004513831809163,0.1121935844421390,0.6299843788146970,3.4872305362566700,-8.326044017354560,-47.83437394737350,-0.0882806795058944,-0.0505541103655453,0.011,-0.079,0.003,0.73
2025-07-30 17:43:11.407443,1753868591.407440,-0.8167173862457280,-0.7133712768554690,9.598955154418940,0.0049159359186887,-0.0115421889349818,0.2008824795484540,-0.0072995610535144,0.1088097095489500,0.6321613192558290,3.391488569243590,-8.332882731415460,-46.87011561092500,-0.0974412420012741,-0.0557999250782761,0.011,-0.079,0.003,0.73
2025-07-30 17:43:11.422477,1753868591.422480,-0.9167088866233830,-0.6444249153137210,9.705930709838870,0.0042244112119078,-0.0100615983828902,0.1661567836999890,-0.0117334630340337,0.1053898781538010,0.6312217712402340,3.3794292168874500,-8.333744113995070,-46.74866071079740,-0.0985950771934965,-0.0564606711438676,0.011,-0.079,0.003,0.73
2025-07-30 17:43:11.428421,1753868591.428420,-0.9246180653572080,-0.4795803725719450,9.842968940734860,-0.0104813920333981,0.0024397885426878,0.165699765086174,-0.0129140429198741,0.1041688323020940,0.630789041519165,3.3746612813118400,-8.334084680928050,-46.700640790486000,-0.0990512718297351,-0.0567219119285745,0.011,-0.079,0.003,0.73
2025-07-30 17:43:11.439598,1753868591.439600,-0.942270278930664,-0.5864371061325070,9.758610725402830,-0.0280634928494691,-0.0080092754215002,0.1655561327934270,-0.0134950503706932,0.1029669195413590,0.6303474307060240,3.3656957035257700,-8.334725079540930,-46.61034461848320,-0.09990909560523,-0.0572131464553507,0.011,-0.079,0.003,0.73
2025-07-30 17:43:11.448210,1753868591.44821,-0.7664368152618410,-0.6880643963813780,9.588939666748050,-0.010574615560472,-0.0034389721695333,0.1609090566635130,-0.0146080888807773,0.1030429154634480,0.6322623491287230,3.358787733491410,-8.335218506125740,-46.540771494999600,-0.1005700480923170,-0.0575916422390897,0.011,-0.079,0.003,0.73
2025-07-30 17:43:11.457347,1753868591.457350,-1.1048495769500700,-0.5292688608169560,9.631306648254400,-0.0103245489299297,-0.001303939265199,0.149228885769844,-0.0161042362451553,0.101843848824501,0.6315236687660220,3.351458641394670,-8.335742012867230,-46.46695707094540,-0.1012712934111800,-0.0579932117947562,0.005,-0.071,0.0,0.73
2025-07-30 17:43:11.467047,1753868591.467050,-0.7014332413673400,-0.4524472653865810,9.811328887939450,-0.0325081050395965,0.0038647416513413,0.1460535526275630,-0.0167024191468954,0.101249098777771,0.6311520934104920,3.3436778279939300,-8.336297785426220,-46.38859316825920,-0.1020157592880150,-0.058419531690701,0.005,-0.071,0.0,0.73
2025-07-30 17:43:11.480557,1753868591.480560,-1.2179219722747800,-0.5944260358810430,9.823853492736820,-0.0336283184587955,0.013044636696577,0.1457137465476990,-0.0172862112522125,0.1011984050273900,0.6314713358879090,3.3328409153393400,-8.337071850857080,-46.2794499816863,-0.1030526318186980,-0.0590132988506791,0.005,-0.071,0.0,0.73
2025-07-30 17:43:11.487731,1753868591.487730,-0.5672951936721800,-0.5519967079162600,9.911224365234380,-0.0070496331900358,0.0104721244424581,0.1365554481744770,-0.0179431159049272,0.1021530926227570,0.6309645175933840,3.327086345467690,-8.337482891690310,-46.221493245006200,-0.1036032273264760,-0.0593285984861462,0.005,-0.071,0.0,0.73
2025-07-30 17:43:11.498241,1753868591.498240,-1.1067216396331800,-0.4671512544155120,9.53543186187744,-0.0338752046227455,-0.0121457995846867,0.1433727890253070,-0.0186473708599805,0.1032024323940280,0.6295266151428220,3.318655871918940,-8.338085068560040,-46.13658633685290,-0.1044098524901150,-0.0597905140238883,0.005,-0.071,0.0,0.73
2025-07-30 17:43:11.507535,1753868591.507540,-0.7400671243667600,-0.5193338990211490,9.706562995910650,-0.0338976718485355,-0.0144475176930427,0.1326096802949910,-0.017382301390171,0.1019632965326310,0.6299895644187930,3.311200749195890,-8.338617577491930,-46.06150260440820,-0.1051231563812480,-0.0601989889454495,0.005,-0.071,0.0,0.73
2025-07-30 17:43:11.516920,1753868591.51692,-0.8779720664024350,-0.8375992774963380,9.806958198547360,-0.0076996372081339,0.0087377708405256,0.1386231780052190,-0.0178915876895189,0.1003316342830660,0.6307544112205510,3.303672570783540,-8.339155304688980,-45.98568309684170,-0.1058434502186760,-0.0606114666739482,0.005,-0.071,0.0,0.73
2025-07-30 17:43:11.526895,1753868591.526900,-1.035165548324590,-0.4584330022335050,10.272061347961400,-0.0157124064862728,0.009002162143588,0.1322443336248400,-0.0184753779321908,0.1002809405326840,0.6310735940933230,3.295671251598100,-8.33972682766606,-45.90509838600020,-0.1066090140224120,-0.0610498683405708,0.005,-0.071,0.0,0.73
2025-07-30 17:43:11.537678,1753868591.537680,-1.0432814359664900,-0.6759776473045350,9.365073204040530,-0.0353177823126316,-0.0113155376166105,0.1411680281162260,-0.0197074878960847,0.1008813381195070,0.6308509707450870,3.28702180222671,-8.340344645670860,-45.817986078594700,-0.1074365907266420,-0.0615237818205731,0.005,-0.071,0.0,0.73
2025-07-30 17:43:11.547152,1753868591.547150,-0.5970407128334050,-0.4264397919178010,9.909719467163090,-0.0340331941843032,-0.0232177171856164,0.1462564170360570,-0.0187779515981674,0.1014225706458090,0.631838858127594,3.2794222893324000,-8.34088746818963,-45.741448130922500,-0.1081637098257640,-0.0619401680490395,0.005,-0.071,0.0,0.73
2025-07-30 17:43:11.557469,1753868591.557470,-1.153786301612850,-0.5833008885383610,9.829739570617680,-0.0362003669142723,-0.0130524961277842,0.1446556597948070,-0.0196487661451101,0.0993319153785705,0.6309862732887270,3.271146724444210,-8.341478580151590,-45.65810137420520,-0.1089555133755340,-0.0623935959595058,0.005,-0.071,0.0,0.73
2025-07-30 17:43:11.567776,1753868591.567780,-0.7161938548088070,-0.5193504691123960,9.674884796142580,-0.0299207232892513,-0.0391525626182556,0.1394525021314620,-0.0205882787704467,0.0996698886156082,0.630413830280304,3.262879000611660,-8.342069132037970,-45.57483358811630,-0.1097465666954670,-0.0628465942493323,0.005,-0.071,0.0,0.73
2025-07-30 17:43:11.577344,1753868591.577340,-0.9236857295036320,-0.6085707545280460,9.603410720825200,-0.014033954590559,0.0174462776631116,0.1510570496320720,-0.0202799066901206,0.0993758738040924,0.6303743720054630,3.250278424783950,-8.34367284637171,-45.49507389566370,-0.1103295310511070,-0.0633664138731827,0.005,-0.071,0.0,0.73
2025-07-30 17:43:11.587886,1753868591.587890,-1.0172343254089400,-0.5012474656105040,9.755590438842770,-0.0218852218240499,-0.0030760341323912,0.149586483836174,-0.0208753030747175,0.097629927098751,0.6292420625686650,3.233365842520480,-8.346088929401610,-45.40567881670530,-0.1108787696001630,-0.0640002271016501,0.005,-0.071,0.0,0.73
2025-07-30 17:43:11.597273,1753868591.597270,-0.8373225331306460,-0.4999023377895360,9.876205444335940,-0.0354553125798702,-0.0035240114666521,0.1495904922485350,-0.0215537957847118,0.0977685302495956,0.627699077129364,3.218306426710330,-8.34824027438324,-45.3260790462832,-0.111367826301283,-0.0645645913604469,0.005,-0.071,0.0,0.73
2025-07-30 17:43:11.607796,1753868591.607800,-0.8297959566116330,-0.7146738767623900,9.810994148254400,-0.0210258048027753,-0.0185470636934041,0.1472617983818050,-0.0212625935673713,0.0980816781520843,0.6277296543121340,3.201424826177030,-8.350651931451960,-45.23684772790090,-0.1119160587141820,-0.0651972435225483,0.0,-0.067,0.0,0.73
2025-07-30 17:43:11.617090,1753868591.61709,-0.7963775396347050,-0.5234421491622930,9.650843620300290,-0.031798843294382,0.0080971159040927,0.1485297381877900,-0.0217976439744234,0.0973607152700424,0.6285995841026310,3.1865145816603400,-8.352781966250140,-45.1580364343269,-0.1124002710560250,-0.0657560174618051,0.0,-0.067,0.0,0.73
2025-07-30 17:43:11.627681,1753868591.627680,-0.9742079973220820,-0.5596972107887270,9.738286972045900,-0.044909156858921,0.0054451166652143,0.1470872461795810,-0.0232694223523139,0.0958265364170074,0.6281362175941470,3.169523588845170,-8.35520925078672,-45.06822689958930,-0.11295205599906,-0.0663927691915692,0.0,-0.067,0.0,0.73
2025-07-30 17:43:11.638088,1753868591.638090,-0.8479487895965580,-0.4985384047031400,9.782414436340330,-0.033950787037611,-0.0055897012352943,0.1483098864555360,-0.023546228185296,0.0960574448108673,0.628796398639679,3.1528278786929500,-8.357594352088370,-44.979978144663800,-0.1134942515950140,-0.0670184549554745,0.0,-0.067,0.0,0.73
2025-07-30 17:43:11.647484,1753868591.647480,-0.8556642532348630,-0.516352653503418,9.722759246826170,-0.0321694202721118,0.000640473968815,0.1506621241569520,-0.0232650134712457,0.0972497537732124,0.6292424201965330,3.1377539282439500,-8.359747773446850,-44.90030154829250,-0.1139837803106280,-0.0675833639120726,0.0,-0.067,0.0,0.73
2025-07-30 17:43:11.657962,1753868591.657960,-0.9170098304748540,-0.6159352660179140,9.88338851928711,-0.029325557872653,0.0045636836439371,0.1475599110126500,-0.0247611608356237,0.0960507094860076,0.6285037398338320,3.120944235923910,-8.362149157914320,-44.81145031618560,-0.1145296774939260,-0.0682133212534726,0.0,-0.067,0.0,0.73
2025-07-30 17:43:11.667364,1753868591.667360,-0.7820016741752630,-0.4792642295360570,9.918204307556150,-0.0184532608836889,-0.0040791565552353,0.1462922543287280,-0.0253119934350252,0.0953612998127937,0.6290633082389830,3.105861105703010,-8.364303890668700,-44.73172519816210,-0.1150195043239570,-0.0687785742297348,0.0,-0.067,0.0,0.73
2025-07-30 17:43:11.677683,1753868591.677680,-0.8759109377861020,-0.5480625033378600,9.89991855621338,-0.0283507667481899,-0.0158442016690969,0.1433344930410390,-0.0256691146641969,0.096325546503067,0.6285520792007450,3.0893061520533300,-8.366668883899810,-44.64422044190360,-0.1155571288321840,-0.0693989850254587,0.0,-0.067,0.0,0.73
2025-07-30 17:43:11.687516,1753868591.687520,-1.094711184501650,-0.4701384007930760,9.647510528564450,-0.0506503842771053,-0.0219472590833902,0.1519003510475160,-0.0263160392642021,0.0964010655879974,0.627629816532135,3.073531479015580,-8.36892240847902,-44.56084002608150,-0.1160694136149630,-0.0699901541497424,0.0,-0.067,0.0,0.73
2025-07-30 17:43:11.697254,1753868591.697250,-0.6990858912467960,-0.7082548141479490,9.882438659667970,-0.0473601333796978,0.0050112344324588,0.1508529186248780,-0.0271408930420875,0.0947913527488708,0.6280887126922610,3.0579090371952600,-8.37115418574281,-44.4782642609916,-0.1165767546669940,-0.0705756182812647,0.0,-0.067,0.0,0.73
2025-07-30 17:43:11.707153,1753868591.707150,-1.0902737379074100,-0.4555953741073610,9.77490234375,-0.0252762865275144,-0.0136857461184263,0.1554499715566640,-0.0273359976708889,0.0937133133411407,0.6295399069786070,3.042028031799610,-8.373422900657910,-44.39432180269830,-0.1170924926084370,-0.0711707722999898,0.0,-0.067,0.0,0.73
2025-07-30 17:43:11.717394,1753868591.717390,-0.7512282133102420,-0.3265831768512730,9.615057945251470,-0.0282553993165493,-0.0165038164705038,0.1535847634077070,-0.0282181836664676,0.0930774509906768,0.6294831037521360,3.0255985350326300,-8.375769971478330,-44.30748017568640,-0.1176260428862980,-0.071786481493639,0.0,-0.067,0.0,0.73
2025-07-30 17:43:11.727811,1753868591.727810,-0.9201453924179080,-0.3506655097007750,9.834284782409670,-0.0585740022361278,-0.0138982152566313,0.1698927283287050,-0.0275324992835521,0.0932108610868454,0.6313714385032650,3.008886760279580,-8.378157367722810,-44.21914650786970,-0.1181687601824820,-0.0724127692919563,0.0,-0.067,0.0,0.73
2025-07-30 17:43:11.737786,1753868591.737790,-0.8408005237579350,-0.4982427656650540,10.07232666015630,-0.0345516018569469,0.0028002597391605,0.1749707758426670,-0.0271524004638195,0.0924870818853378,0.6325384378433230,2.992884122906190,-8.380443458633650,-44.13456113768480,-0.1186884481399500,-0.0730124815712294,0.0,-0.067,0.0,0.73
2025-07-30 17:43:11.748929,1753868591.748930,-0.9151897430419920,-0.5085984468460080,9.587236404418940,-0.028208777308464,-0.0311530958861112,0.1823551058769230,-0.0269373338669538,0.0918067693710327,0.6302564144134520,2.975007664592690,-8.382997238233530,-44.04007128524610,-0.1192689887027940,-0.0736824168644171,0.0,-0.067,0.0,0.73
2025-07-30 17:43:11.760912,1753868591.760910,-0.62091463804245,-0.5555664300918580,9.43210506439209,-0.0281740371137857,-0.0201625451445579,0.1851428747177120,-0.0284966174513101,0.0907339006662368,0.6282762885093690,2.9557836922616400,-8.385743519823930,-43.93845885861260,-0.1198932899777680,-0.0744028513774499,0.0,-0.067,0.0,0.73
2025-07-30 17:43:11.768237,1753868591.768240,-0.9925302267074580,-0.3329027593135830,9.759095191955570,-0.0270429383963346,-0.0002255705039715,0.1871402561664580,-0.0290502347052097,0.0911957323551178,0.6295966506004330,2.9440320542612500,-8.387422325147910,-43.8763430568639,-0.1202749261172890,-0.0748432538839843,0.0,-0.067,0.0,0.73
2025-07-30 17:43:11.777515,1753868591.777520,-0.7213088274002080,-0.0561276115477085,10.297465324401900,-0.0635760948061943,-0.0095952674746513,0.1825934052467350,-0.02933563105762,0.0917301923036575,0.6302918195724490,2.9273396489932200,-8.39334577732122,-43.80110467678890,-0.1208375563722770,-0.0753986526936953,0.0,-0.067,0.0,0.73
2025-07-30 17:43:11.787506,1753868591.787510,-0.9449537992477420,-1.286852240562440,9.811113357543940,-0.0184998363256454,0.0495483316481113,0.1779157817363740,-0.0302106216549873,0.0913663506507873,0.630580484867096,2.908448720831310,-8.40164633652128,-43.72182002446480,-0.1214835593640990,-0.0759955399196299,0.0,-0.067,0.0,0.73
2025-07-30 17:43:11.800045,1753868591.800050,-0.9189112186431880,-0.5629949569702150,9.331079483032230,-0.0069454791955649,-0.0832911282777786,0.1704726815223690,-0.0299238301813602,0.0902562886476516,0.6295048594474790,2.8847406195119000,-8.41206353237508,-43.62231784255690,-0.1222942926563700,-0.0767446329608734,0.0,-0.067,0.0,0.73
2025-07-30 17:43:11.807515,1753868591.807520,-0.4725619554519650,-0.3025092780590060,9.860629081726070,-0.0218938887119293,0.0429642274975776,0.1665243357419970,-0.0293788034468889,0.090098038315773,0.6282195448875430,2.870616826493220,-8.418269441321220,-43.56304071178890,-0.122777276471021,-0.0771908953976547,-0.005,-0.066,0.0,0.72
2025-07-30 17:43:11.816975,1753868591.816980,-1.4186227321624800,-0.5516880750656130,10.018545150756800,-0.0658296197652816,-0.0482014454901218,0.1660486608743670,-0.030213639140129,0.0893675237894058,0.6290938854217530,2.852729814167140,-8.426128885994990,-43.48796946376780,-0.1233889490886060,-0.077756062396124,-0.005,-0.066,0.0,0.72
2025-07-30 17:43:11.828141,1753868591.828140,-0.2131638079881670,-0.6592130064964290,9.5919828414917,-0.0646223723888397,0.0183652136474847,0.1612699925899510,-0.0313956104218959,0.0887220799922943,0.6290415525436400,2.831617829281760,-8.435405364041480,-43.39936310376460,-0.1241109043722410,-0.0784231272424991,-0.005,-0.066,0.0,0.72
2025-07-30 17:43:11.839365,1753868591.839370,-1.3974366188049300,-0.6516397595405580,9.861173629760740,-0.0372491143643856,-0.0008752244757488,0.1529120504856110,-0.0317427441477775,0.0888071507215499,0.6281148791313170,2.810395850923580,-8.444730172552470,-43.31029510449340,-0.1248366210439820,-0.0790936674977208,-0.005,-0.066,0.0,0.72
2025-07-30 17:43:11.847314,1753868591.847310,-0.3748537600040440,-0.2664062976837160,9.879571914672850,-0.0324190855026245,-0.0307004675269126,0.1535579413175580,-0.0317139662802219,0.0898952633142471,0.6294963955879210,2.795366414925910,-8.451334015527930,-43.2472170176207,-0.1253505746484150,-0.0795685450835715,-0.005,-0.066,0.0,0.72
2025-07-30 17:43:11.858688,1753868591.858690,-1.3425331115722700,-0.6675764322280880,9.91649341583252,-0.0455673709511756,-0.0121677694842219,0.1503434032201770,-0.0326091572642326,0.0881397351622581,0.6283684968948360,2.773860437027280,-8.460783611713610,-43.15695708089500,-0.1260860031009240,-0.0802480587304875,-0.005,-0.066,0.0,0.72
2025-07-30 17:43:11.868066,1753868591.868070,-0.3916295170784000,-0.4945254325866700,9.710333824157720,-0.0228375606238842,-0.0606261529028415,0.1498011350631710,-0.0334583781659603,0.0868651568889617,0.6285520195961000,2.7561289482590700,-8.468574720279810,-43.08253856052760,-0.1266923573623740,-0.0808083117287433,-0.005,-0.066,0.0,0.72
2025-07-30 17:43:11.884584,1753868591.884580,-0.9440549612045290,-0.5060046911239620,9.77313995361328,-0.0478421039879322,0.0126608815044164,0.1448504626750950,-0.0340895131230354,0.0869091153144836,0.6279401779174810,2.7248975638753200,-8.482297601059150,-42.95146138786340,-0.1277603603518370,-0.0817951141890109,-0.005,-0.066,0.0,0.72
2025-07-30 17:43:11.889908,1753868591.889910,-0.9804879426956180,-0.5189818143844600,9.756377220153810,-0.0461472198367118,-0.0254223383963108,0.1451401263475420,-0.0334741622209548,0.0868967100977897,0.6282416582107540,2.71483090714875,-8.48672082893813,-42.90921193501540,-0.1281046044412360,-0.0821131853158745,-0.005,-0.066,0.0,0.72
2025-07-30 17:43:11.897432,1753868591.897430,-0.7261411547660830,-0.5140149593353270,9.638822555541990,-0.0510324537754058,-0.0192649085074663,0.1410288959741590,-0.0340579487383365,0.0868460088968277,0.6285609006881710,2.7006047841369200,-8.4929717010623,-42.84950532837090,-0.1285910875800690,-0.0825626810223614,-0.005,-0.066,0.0,0.72
2025-07-30 17:43:11.908014,1753868591.908010,-0.9247114658355710,-0.5631217956542970,9.793535232543940,-0.039267212152481,-0.0353162549436092,0.1372473239898680,-0.0337509736418724,0.087127611041069,0.6289018392562870,2.6805967911159200,-8.501763091782850,-42.76553238872610,-0.12927529024291,-0.08319486358896,-0.005,-0.066,0.0,0.72
2025-07-30 17:43:11.917383,1753868591.917380,-0.763171911239624,-0.4740476012229920,9.825148582458500,-0.0422732159495353,-0.0023524996358901,0.1316941529512410,-0.0355411022901535,0.0867666006088256,0.6288933753967290,2.662882432478720,-8.509546673473430,-42.69118576299880,-0.129881058714409,-0.0837545753350184,-0.005,-0.066,0.0,0.72
2025-07-30 17:43:11.927867,1753868591.927870,-0.945151388645172,-0.470431238412857,9.737772941589360,-0.0505311302840709,-0.0011551902862265,0.1328146755695340,-0.0364318788051605,0.086434319615364,0.6288716197013860,2.64305971534839,-8.51825665509191,-42.60799042064580,-0.1305589255964640,-0.0843809038317974,-0.005,-0.066,0.0,0.72
2025-07-30 17:43:11.939595,1753868591.939600,-0.7532918453216550,-0.4961823225021360,9.8038911819458,-0.0370099544525146,-0.0192012805491685,0.1293231397867200,-0.0370056927204132,0.0855044424533844,0.628775417804718,2.620884760754480,-8.528000195578,-42.51492280902750,-0.1313172306881150,-0.0850815548013709,-0.005,-0.066,0.0,0.72
2025-07-30 17:43:11.947747,1753868591.947750,-0.9050978422164920,-0.4855602085590360,9.718622207641600,-0.0429627448320388,-0.0078818770125508,0.1296934485435490,-0.0373226478695869,0.0861020237207412,0.6288499236106870,2.605471249187830,-8.534772799027820,-42.45023276864510,-0.1318443183198710,-0.0855685678312271,-0.005,-0.066,0.0,0.72
2025-07-30 17:43:11.958262,1753868591.958260,-0.8334885239601140,-0.4942352771759030,9.751587867736820,-0.0596624389290809,-0.0221022609621286,0.1257599741220470,-0.0382364094257354,0.0855292603373527,0.6281723976135250,2.58558992897772,-8.543508530483940,-42.36679147094430,-0.1325241892201790,-0.0861967479802605,-0.005,-0.066,0.0,0.72
2025-07-30 17:43:11.969854,1753868591.969850,-0.8869376182556150,-0.5024893879890440,9.849160194396970,-0.0478931292891502,-0.0128163564950227,0.1230639740824700,-0.0379524007439613,0.0855703800916671,0.6278576254844670,2.563671926348970,-8.553139167835780,-42.27480227892760,-0.1332737074625640,-0.0868892801668725,-0.005,-0.066,0.0,0.72
2025-07-30 17:43:11.977511,1753868591.977510,-0.8418793678283690,-0.4981740415096280,9.83383846282959,-0.0393740497529506,-0.0210478045046329,0.1241153478622440,-0.0390698462724685,0.0842231214046478,0.628666341304779,2.545219188073730,-8.563114487329750,-42.22885982242590,-0.1338479906755650,-0.0873443097978084,-0.005,-0.066,0.0,0.72
2025-07-30 17:43:11.989792,1753868591.989790,-0.9166883230209350,-0.4346462488174440,9.819531440734860,-0.047601755708456,-0.0129682496190071,0.1225904896855350,-0.0402346476912498,0.082970529794693,0.6285439729690550,2.514258166496310,-8.580354147085680,-42.16025301331850,-0.1347962863841520,-0.0880733335062095,-0.005,-0.066,0.0,0.72
2025-07-30 17:43:11.997825,1753868591.997830,-0.8466924428939820,-0.466942548751831,9.83840274810791,-0.051037348806858,-0.0353196747601032,0.116128571331501,-0.0405646041035652,0.0824484527111053,0.6275472640991210,2.4940073707636200,-8.591630158355060,-42.1153790910019,-0.1354165418444170,-0.0885501688769739,-0.005,-0.066,0.0,0.72
2025-07-30 17:43:12.007920,1753868592.00792,-0.8547784090042110,-0.4358294308185580,9.818645477294920,-0.0477079488337039,-0.0365326292812824,0.1188447475433350,-0.0402562320232391,0.0821544528007507,0.6275078058242800,2.4685574362713500,-8.605801144617910,-42.0589843498548,-0.1361960401436730,-0.0891494257708629,-0.008,-0.065,0.0,0.72
2025-07-30 17:43:12.021739,1753868592.021740,-0.8621225953102110,-0.4928353130817410,9.711668968200680,-0.050430592149496,-0.0234590731561183,0.1127126216888430,-0.0402949936687946,0.0819455310702323,0.6265417337417600,2.433719600243140,-8.625199485149320,-41.981786872370800,-0.1372630776223750,-0.0899697348924609,-0.008,-0.065,0.0,0.72
2025-07-30 17:43:12.029348,1753868592.029350,-0.857785701751709,-0.4594047963619230,9.741690635681150,-0.0506372116506099,-0.0191595777869224,0.112523503601551,-0.0408400297164917,0.0821037515997886,0.6278270483016970,2.4145374829745600,-8.635880436818880,-41.93928104437570,-0.1378506008551570,-0.090421406625293,-0.008,-0.065,0.0,0.72
2025-07-30 17:43:12.037571,1753868592.037570,-0.8672300577163700,-0.4052796363830570,9.784368515014650,-0.0458710305392742,-0.0205517187714576,0.109419971704483,-0.0411312207579612,0.0817906185984611,0.6277964115142820,2.393807044151680,-8.647423522081870,-41.89334427657630,-0.1384855471576790,-0.0909095359122948,-0.008,-0.065,0.0,0.72
2025-07-30 17:43:12.047241,1753868592.047240,-0.9085562229156490,-0.4193884432315830,9.74401569366455,-0.0536010898649692,-0.0300589930266141,0.109954610466957,-0.0419890396296978,0.080819621682167,0.6280149817466740,2.369428793406040,-8.660997775348960,-41.839324289183500,-0.1392322211815680,-0.0914835584043652,-0.008,-0.065,0.0,0.72
2025-07-30 17:43:12.068185,1753868592.068190,-0.8814553618431090,-0.4800286293029790,9.694833755493160,-0.0552254654467105,-0.030795507133007,0.1072984337806700,-0.0434765964746475,0.0793169736862182,0.627241313457489,2.3166283837558600,-8.690398003473420,-41.72232338155490,-0.1408494288618030,-0.0927268232737756,-0.008,-0.065,0.0,0.72
2025-07-30 17:43:12.081446,1753868592.081450,-0.8868242502212520,-0.3912596106529240,9.791007041931150,-0.0474376007914543,-0.0083895409479737,0.1049911007285120,-0.0447818264365196,0.0809227675199508,0.6261926889419560,2.283197621003500,-8.709012860021050,-41.6482438505313,-0.1418733695213050,-0.0935140007438551,-0.008,-0.065,0.0,0.72
2025-07-30 17:43:12.088041,1753868592.088040,-0.9231835603713990,-0.4499834179878240,9.745285034179690,-0.0533993020653724,-0.013368995860219,0.1046328917145730,-0.0441335067152977,0.0802716463804245,0.6267344951629640,2.26657119598992,-8.718270755774750,-41.61140120423190,-0.1423826152336950,-0.0939054948678634,-0.008,-0.065,0.0,0.72
2025-07-30 17:43:12.098360,1753868592.09836,-0.8574725389480590,-0.4399665296077730,9.717764854431150,-0.0493674613535404,-0.0207415930926799,0.1028613746166230,-0.043515358120203,0.0791080519556999,0.6262751817703250,2.2405568694404000,-8.732756005797000,-41.55375582159550,-0.1431794001255310,-0.0945180412195806,-0.008,-0.065,0.0,0.72
2025-07-30 17:43:12.112780,1753868592.11278,-0.8725152611732480,-0.3844931125640870,9.796748161315920,-0.0486930385231971,-0.0134596889838576,0.1017842292785640,-0.043830931186676,0.0791300237178802,0.6259692907333370,2.2042037699656100,-8.752998072566400,-41.47320065806860,-0.1442928481472500,-0.0953740294926002,-0.008,-0.065,0.0,0.72
2025-07-30 17:43:12.119293,1753868592.119290,-0.9434030652046200,-0.3886402249336240,9.870670318603520,-0.0516345538198947,-0.0164612270891666,0.1025667786598210,-0.0447374880313873,0.0788292735815048,0.6256372332572940,2.1877847094459000,-8.762140503999540,-41.43681751263570,-0.1447957425556570,-0.0957606409084608,-0.008,-0.065,0.0,0.72
2025-07-30 17:43:12.129044,1753868592.129040,-0.90073561668396,-0.4011597633361820,9.76382541656494,-0.0513989068567752,-0.0196901354938745,0.0983614325523376,-0.0446973405778408,0.0784625932574272,0.6262228488922120,2.1632020994889000,-8.775828548191230,-41.382344683809200,-0.145548675835646,-0.0963394753447927,-0.008,-0.065,0.0,0.72
2025-07-30 17:43:12.137636,1753868592.137640,-0.9122040271759030,-0.4132332801818850,9.70447063446045,-0.0422217585146427,-0.0207634642720222,0.0946419388055801,-0.0465060397982597,0.0792843401432037,0.6266648769378660,2.141541826254340,-8.787889382161150,-41.33434748748590,-0.146212101753418,-0.0968494989781846,-0.008,-0.065,0.0,0.72
2025-07-30 17:43:12.153396,1753868592.153400,-0.9372575879096980,-0.3584902584552770,9.780377388000490,-0.0452931486070156,-0.0250953137874603,0.0947674438357353,-0.0468216128647327,0.079306311905384,0.6263589262962340,2.101810789227080,-8.810012345978320,-41.246307121435500,-0.1474290115965390,-0.097785025859292,-0.008,-0.065,0.0,0.72
2025-07-30 17:43:12.158565,1753868592.158570,-0.924164354801178,-0.367258608341217,9.77657413482666,-0.0514849200844764,-0.0261019151657819,0.092897392809391,-0.0464860796928405,0.0775259882211685,0.6258339881896970,2.0887792831639100,-8.817268525496640,-41.21743048871130,-0.1478281496303160,-0.0980918722226289,-0.008,-0.065,0.0,0.72
2025-07-30 17:43:12.168156,1753868592.168160,-0.8882340788841250,-0.4009257555007930,9.69707489013672,-0.0561851300299167,-0.0239296536892652,0.0924240797758102,-0.046721339225769,0.0768146067857742,0.6266995072364810,2.0646005831775900,-8.83073166527265,-41.16385268765970,-0.1485687116747210,-0.0986611959926556,-0.008,-0.065,0.0,0.72
2025-07-30 17:43:12.178847,1753868592.178850,-0.918870449066162,-0.4078231155872350,9.69981288909912,-0.0447666086256504,-0.0188818462193012,0.0922395139932632,-0.0482031032443046,0.0761595964431762,0.6266515851020810,2.0409327470948000,-8.841359696617870,-41.11223058809190,-0.1492022480766010,-0.0993016498538156,-0.008,-0.065,0.0,0.72
2025-07-30 17:43:12.187664,1753868592.187660,-0.9247266054153440,-0.3575351536273960,9.742469787597660,-0.0413723923265934,-0.0170156210660934,0.0916603580117225,-0.0482116937637329,0.0764631628990173,0.6266865730285650,2.0224938840347800,-8.848684724390720,-41.07232181622490,-0.1496616051340580,-0.0998317410920004,-0.008,-0.065,0.0,0.72
2025-07-30 17:43:12.198510,1753868592.19851,-0.9259933829307560,-0.3647620379924770,9.718368530273440,-0.0462091155350208,-0.0194402672350406,0.0916307568550109,-0.0476264990866184,0.0759382620453834,0.6259869933128360,1.999811903572830,-8.857695374140980,-41.02322931085720,-0.1502266685963970,-0.1004838159552080,-0.008,-0.065,0.0,0.72
2025-07-30 17:43:12.210316,1753868592.210320,-0.9281018972396850,-0.3799668550491330,9.649898529052730,-0.0490253046154975,-0.0153065137565135,0.0909433886408805,-0.0491412207484245,0.0759219527244567,0.6256987452507020,1.975122046051240,-8.867503673680100,-40.969790989413500,-0.1508417531741840,-0.1011936144444980,-0.007,-0.064,0.0,0.72
2025-07-30 17:43:12.217759,1753868592.217760,-0.9054953455924990,-0.3989630341529850,9.663293838500980,-0.0471280701458454,-0.0115191433578729,0.0903981477022171,-0.0503891184926033,0.0765539184212684,0.6251658201217650,1.959556636056710,-8.873687192703730,-40.936101472089900,-0.1512295255064550,-0.101641097970461,-0.007,-0.064,0.0,0.72
2025-07-30 17:43:12.227624,1753868592.227620,-0.9232913255691530,-0.3631675541400910,9.732660293579100,-0.045557614415884,-0.0071848612278699,0.0919507965445518,-0.050380527973175,0.0762503519654274,0.625130832195282,1.9389259111754400,-8.881882960102040,-40.89144867055560,-0.1517434871885720,-0.1022342021364480,-0.007,-0.064,0.0,0.72
2025-07-30 17:43:12.242727,1753868592.242730,-0.9181692004203800,-0.3637280464172360,9.693363189697270,-0.0422151014208793,-0.0095372600480914,0.087955929338932,-0.0506717264652252,0.0759371891617775,0.6251001954078670,1.9073408632247900,-8.894430444873320,-40.82308651238100,-0.1525303477796520,-0.1031422275999370,-0.007,-0.064,0.0,0.72
2025-07-30 17:43:12.248198,1753868592.248200,-0.9242307543754580,-0.3515633344650270,9.679916381835940,-0.0436794310808181,-0.0059436466544866,0.0887294635176658,-0.0512884780764579,0.0765251889824867,0.62517911195755,1.89589940435028,-8.898975681949220,-40.7983228070179,-0.152815382429809,-0.1034711533629680,-0.007,-0.064,0.0,0.72
2025-07-30 17:43:12.260801,1753868592.260800,-0.9230849146842960,-0.3546349108219150,9.722906112670900,-0.0402291901409626,-0.0061000967398285,0.0845282971858978,-0.0516012609004974,0.0753959715366363,0.6241123676300050,1.8695427146930100,-8.909446147677580,-40.741276821521,-0.1534719918620640,-0.1042288709190560,-0.007,-0.064,0.0,0.72
2025-07-30 17:43:12.268043,1753868592.268040,-0.9271356463432310,-0.3460628092288970,9.756457328796390,-0.0377404391765594,-0.0092572579160332,0.0857333540916442,-0.0512757077813148,0.0744948089122772,0.6240028738975530,1.8543976276091500,-8.915462689106970,-40.708497044190500,-0.1538492929253200,-0.1046642707557250,-0.007,-0.064,0.0,0.72
2025-07-30 17:43:12.277421,1753868592.277420,-0.9353758692741390,-0.3391108810901640,9.721649169921880,-0.0390956774353981,-0.009942446835339,0.0880868211388588,-0.0515425391495227,0.0738465338945388,0.6242476105690000,1.8347855500665500,-8.923253788385440,-40.66604898619810,-0.1543378776174050,-0.1052280902512160,-0.007,-0.064,0.0,0.72
2025-07-30 17:43:12.292594,1753868592.292590,-0.9257503747940060,-0.3308667242527010,9.691529273986820,-0.0387833081185817,-0.011954647488892,0.0880724638700485,-0.0512757077813148,0.0744948089122772,0.6240028738975530,1.8030544112347300,-8.935859309260060,-40.59737063132360,-0.1551283776887000,-0.1061403156209490,-0.007,-0.064,0.0,0.72
2025-07-30 17:43:12.297805,1753868592.297810,-0.9357472658157350,-0.3285489380359650,9.729155540466310,-0.038774948567152,-0.0106362104415893,0.0850454568862915,-0.0509845167398452,0.0748079568147659,0.6240334510803220,1.792156430382330,-8.940188644108530,-40.57378322085070,-0.1553998729755990,-0.1064536171593870,-0.007,-0.064,0.0,0.72
2025-07-30 17:43:12.306604,1753868592.306600,-0.9440085887908940,-0.3356319367885590,9.72570514678955,-0.0342770628631114,-0.0152351129800081,0.0851899608969688,-0.0521277263760566,0.0743714496493339,0.6249472498893740,1.77375546120275,-8.947498618148090,-40.53395646587520,-0.1558582860040580,-0.1069826190020960,-0.007,-0.064,0.0,0.72
2025-07-30 17:43:12.318486,1753868592.318490,-0.919442892074585,-0.3257132470607760,9.697641372680660,-0.0327194668352603,-0.0130765959620475,0.0827582031488418,-0.0535994991660118,0.0728372484445571,0.6244838833808900,1.7489065491040500,-8.957370103751920,-40.48017388932140,-0.1564773330193490,-0.1076969900855550,-0.007,-0.064,0.0,0.72
2025-07-30 17:43:12.331062,1753868592.331060,-0.9287543296813960,-0.3290541470050810,9.683767318725590,-0.0305913817137479,-0.0103282732889056,0.0858051180839538,-0.0532653629779815,0.0716325342655181,0.6243394017219540,1.7226062016637400,-8.96781818695579,-40.42324984999200,-0.1571325388295420,-0.1084530878825800,-0.007,-0.064,0.0,0.72
2025-07-30 17:43:12.337290,1753868592.33729,-0.9239107370376590,-0.3136228919029240,9.703142166137700,-0.0316159203648567,-0.0138767017051577,0.0843940153717994,-0.0544185526669025,0.072075180709362,0.6256685256958010,1.7095816760734700,-8.972992313547350,-40.39505978107260,-0.1574570115332250,-0.1088275245750400,-0.007,-0.064,0.0,0.72
2025-07-30 17:43:12.350450,1753868592.35045,-0.9470995664596560,-0.3199710547924040,9.693334579467770,-0.032261673361063,-0.0079827904701232,0.084122709929943,-0.0544141456484794,0.0734984129667282,0.6267747282981870,1.682060248196350,-8.983925483498890,-40.33549285533390,-0.1581426374357270,-0.1096187267078670,-0.007,-0.064,0.0,0.72
2025-07-30 17:43:12.358082,1753868592.358080,-0.9249595999717710,-0.3296218812465670,9.668853759765620,-0.0302289389073848,-0.0112682161852717,0.0864036157727241,-0.053566537797451,0.0721985474228859,0.6247242093086240,1.666099445475650,-8.990266076344850,-40.300947556498500,-0.1585402599653030,-0.110077577215575,-0.007,-0.064,0.0,0.72
2025-07-30 17:43:12.367242,1753868592.367240,-0.9252947568893430,-0.3029293119907380,9.671072959899900,-0.0283621381968259,-0.0066217235289514,0.0839218497276306,-0.0542048811912536,0.0719704777002334,0.6237669587135320,1.6469430917057200,-8.997876134672990,-40.25948585954250,-0.1590174914665470,-0.1106282952970510,-0.007,-0.064,0.0,0.72
2025-07-30 17:43:12.382154,1753868592.382150,-0.9338315725326540,-0.3018060028553010,9.69886875152588,-0.0257384236901998,-0.0046044467017054,0.0823985338211059,-0.0550870597362518,0.0713346004486084,0.6237102150917050,1.635835833989770,-9.00587272019957,-40.17504845824980,-0.1590965636717380,-0.1112081297547420,-0.007,-0.064,0.0,0.72
2025-07-30 17:43:12.389618,1753868592.389620,-0.9185308814048770,-0.2735799849033360,9.681401252746580,-0.0264294855296611,-0.0074386796914041,0.0858230739831924,-0.0547700971364975,0.0707370340824127,0.6236357688903810,1.6339114013874600,-9.009080107994470,-40.12971737763910,-0.1590097992728170,-0.1114410192900150,-0.007,-0.064,0.0,0.72
2025-07-30 17:43:12.397983,1753868592.397980,-1.1775637865066500,-0.3006431460380550,9.650848388671880,-0.0272510331124067,-0.0081044062972068,0.0829827934503555,-0.0559692457318306,0.0706987380981445,0.6236534714698790,1.6317546058120400,-9.012674767426270,-40.07891285792060,-0.1589125586256390,-0.1117020287525660,-0.007,-0.064,0.0,0.72
2025-07-30 17:43:12.407255,1753868592.407260,-0.6854169368743900,-0.2368998974561690,9.8004789352417,-0.0199922267347574,-4.77837202197406E-05,0.088404580950737,-0.0574122443795204,0.0702526494860649,0.624571681022644,1.6293640334147000,-9.016659054909700,-40.022601595099700,-0.1588047779858360,-0.1119913292424800,-0.003,-0.061,0.004,0.72
2025-07-30 17:43:12.422140,1753868592.42214,-1.2359178066253700,-0.2284179627895360,9.701220512390140,-0.0114147122949361,-0.006294869352132,0.0959293022751808,-0.0580419972538948,0.0697209984064102,0.6235793828964230,1.6255262331135800,-9.02305538899298,-39.93220007383580,-0.1586317480569580,-0.1124557692688710,-0.003,-0.061,0.004,0.72
2025-07-30 17:43:12.427386,1753868592.427390,-0.6711622476577760,-0.3867426514625550,9.875274658203120,-0.0285039842128753,-0.0071479831822216,0.0926281809806823,-0.0587060898542404,0.0704036653041839,0.6227272152900700,1.6241736101345600,-9.02530976071211,-39.90033828702950,-0.1585707640975290,-0.112619459977814,-0.003,-0.061,0.004,0.72
2025-07-30 17:43:12.441272,1753868592.441270,-1.29296875,-0.1999640315771100,9.433792114257810,-0.0185003951191902,-0.0201205220073461,0.1106912121176720,-0.0587448589503765,0.070194736123085,0.6217610836029050,1.6205933761978300,-9.03127681750476,-39.81600388477670,-0.1584093467295490,-0.1130527300319060,-0.003,-0.061,0.004,0.72
2025-07-30 17:43:12.448514,1753868592.448510,-0.6579445004463200,-0.5100106596946720,9.694581031799320,-0.0052120825275778,-0.0120924431830644,0.103544034063816,-0.0580707751214504,0.068632885813713,0.6221978664398190,1.6187261737352100,-9.034388821729830,-39.7720208919462,-0.1583251625917730,-0.1132786937332390,-0.003,-0.061,0.004,0.72
2025-07-30 17:43:12.456945,1753868592.456950,-1.3407024145126300,-0.1077407747507100,9.669243812561040,-0.0075192763470113,-0.0142436381429433,0.1143413186073300,-0.0571068823337554,0.0679598227143287,0.6230456233024600,1.6165524119744400,-9.038011758138300,-39.720816724292800,-0.158227157012182,-0.1135417563968290,-0.003,-0.061,0.004,0.72
2025-07-30 17:43:12.471688,1753868592.471690,-0.4908887147903440,-0.3298997581005100,9.976238250732420,-0.0232008136808872,-0.0106408251449465,0.1117493510246280,-0.0564857274293899,0.0687950402498245,0.6240729093551640,1.612751187326490,-9.044347132797260,-39.6312767628885,-0.1580557761223810,-0.1140017701383710,-0.003,-0.061,0.004,0.72
2025-07-30 17:43:12.478242,1753868592.478240,-1.3477483987808200,-0.2611524164676670,9.479893684387210,-0.0173473451286554,-0.0105757415294647,0.1154992431402210,-0.0579832755029201,0.0681715607643127,0.6237146258354190,1.6110613921497000,-9.047163458201140,-39.59147269737690,-0.1579795905170040,-0.1142062644984020,-0.003,-0.061,0.004,0.72
2025-07-30 17:43:12.487099,1753868592.487100,-0.5960167646408080,-0.3024167120456700,9.674797058105470,0.002314627636224,-0.0308451391756534,0.117562361061573,-0.0591466799378395,0.0663433670997619,0.6232118606567380,1.6087777804860300,-9.050969477788220,-39.53768095414530,-0.1578766322771920,-0.1144826208948080,-0.003,-0.061,0.004,0.72
2025-07-30 17:43:12.498458,1753868592.498460,-1.0889573097229000,-0.2300039380788800,9.666446685791020,-0.002882847096771,0.0067422869615256,0.1189616844058040,-0.0594306848943233,0.0663022547960281,0.6235266327857970,1.605849084949340,-9.055850637205340,-39.46869390139070,-0.1577445899767440,-0.1148370435655120,-0.003,-0.061,0.004,0.72
2025-07-30 17:43:12.507763,1753868592.507760,-0.8081618547439580,-0.2678947150707250,9.758333206176760,-0.0116853024810552,-0.0331314466893672,0.1219111233949660,-0.0600244551897048,0.0671307370066642,0.6242612600326540,1.6034499679876500,-9.059849165629910,-39.412181366602600,-0.1576364240992410,-0.1151273780950800,-0.003,-0.061,0.004,0.72
2025-07-30 17:43:12.519170,1753868592.51917,-0.9264481067657470,-0.3484347760677340,9.57158374786377,0.0037175249308347,0.0189346764236688,0.1237078532576560,-0.0608750656247139,0.066431775689125,0.6248251795768740,1.600508855170390,-9.06475102051546,-39.342901817895700,-0.1575038219569560,-0.1154833034708920,-0.003,-0.061,0.004,0.72
2025-07-30 17:43:12.528015,1753868592.528020,-0.9550372958183290,-0.2398976534605030,9.707284927368160,0.0059431898407638,-0.0292220953851938,0.1276942491531370,-0.0603242442011833,0.0671211555600166,0.624265730381012,1.5982283785627100,-9.068551815009020,-39.289183922652100,-0.1574010050633510,-0.1157592804714530,-0.003,-0.061,0.004,0.72
2025-07-30 17:43:12.537494,1753868592.537490,-0.8546434640884400,-0.1956925988197330,9.782404899597170,-0.0086255278438329,-0.0013509559212252,0.1295031160116200,-0.0606569871306419,0.0677503049373626,0.624029815196991,1.595784387270230,-9.0726251339878,-39.231614348036300,-0.1572908159950470,-0.1160550455689870,-0.003,-0.061,0.004,0.72
2025-07-30 17:43:12.553489,1753868592.553490,-0.9199299812316900,-0.3500518202781680,9.774890899658200,-0.0023173578083515,-0.0290116760879755,0.1304265260696410,-0.0603228509426116,0.0665455609560012,0.6238853335380550,1.5916603747990300,-9.079498488373040,-39.13447093987140,-0.157104881988951,-0.1165541222042150,-0.003,-0.061,0.004,0.72
2025-07-30 17:43:12.560083,1753868592.560080,-0.9325011372566220,-0.2493803650140760,9.512908935546880,0.0043160645291209,-0.0083885742351412,0.1328795105218890,-0.0603660233318805,0.0649133920669555,0.6218129992485050,1.589960252378990,-9.08233202584968,-39.09442361039940,-0.1570282307725400,-0.1167598663387920,-0.003,-0.061,0.004,0.72
2025-07-30 17:43:12.567724,1753868592.567720,-1.0220551490783700,-0.2818001806735990,9.729304313659670,0.014171096496284,0.0026806646492332,0.1429874002933500,-0.0610458999872207,0.0656276121735572,0.6206504702568050,1.587990146313980,-9.085615536085390,-39.04801666596410,-0.1569394071533920,-0.1169982831507760,-0.003,-0.061,0.004,0.72
2025-07-30 17:43:12.577314,1753868592.577310,-0.9792359471321110,-0.147500067949295,9.829628944396970,0.0117221791297197,-0.0112353796139359,0.1526370495557790,-0.062133178114891,0.0647928714752197,0.6224603056907650,1.596896321719080,-9.087810860771600,-38.972618116484400,-0.1569871099846160,-0.1174811996263660,-0.003,-0.061,0.004,0.72
2025-07-30 17:43:12.587624,1753868592.587620,-0.9847273230552670,-0.3326574862003330,9.729155540466310,0.003147720824927,-0.0165240373462438,0.1527571380138400,-0.0619495809078216,0.0635666400194168,0.6254587769508360,1.613436741245420,-9.088992319198730,-38.8810550814225,-0.1571358356787190,-0.1181128306186890,-0.003,-0.061,0.004,0.72
2025-07-30 17:43:12.603533,1753868592.603530,-0.9734041690826420,-0.3333583772182460,9.64399242401123,0.0182921905070543,-0.032740406692028,0.1639539301395420,-0.0604420602321624,0.0633109211921691,0.6254016160964970,1.6389591853702300,-9.090815350751480,-38.73977012534600,-0.1573653246110650,-0.1190874592660100,-0.003,-0.061,0.004,0.72
2025-07-30 17:43:12.608456,1753868592.608460,-0.8780533671379090,-0.2237271964550020,9.617236137390140,0.0118475910276174,-0.0261328890919685,0.1696154922246930,-0.061111956834793,0.0631459578871727,0.6238237023353580,1.6468568493786500,-9.091379469556480,-38.69605091463570,-0.1574363376563850,-0.1193890483125710,0.0,-0.057,0.004,0.71
2025-07-30 17:43:12.617573,1753868592.617570,-1.0527169704437300,-0.2834786772727970,9.795259475708010,0.0135653838515281,-0.0196654740720987,0.1732884794473650,-0.063507467508316,0.061918169260025,0.6230983138084410,1.6614832864031300,-9.092424214960550,-38.61508313966650,-0.1575678534861530,-0.1199475898246060,0.0,-0.057,0.004,0.71
2025-07-30 17:43:12.627616,1753868592.627620,-0.719845712184906,-0.1644679307937620,9.520809173583980,0.0114812394604086,-0.032209001481533,0.1725891083478930,-0.0628591552376747,0.0612670704722404,0.6236401796340940,1.677594934070040,-9.093575046829150,-38.52589366307060,-0.1577127238129660,-0.120562847254298,0.0,-0.057,0.004,0.71
2025-07-30 17:43:12.638078,1753868592.638080,-0.9169795513153080,-0.1081108003854750,9.63097095489502,0.0055735325440764,-0.0111113218590617,0.184772714972496,-0.0616672039031982,0.0610333271324634,0.6232770681381230,1.6943790000499500,-9.094773908572770,-38.43298187087860,-0.1578636402911570,-0.1212037824030850,0.0,-0.057,0.004,0.71
2025-07-30 17:43:12.648348,1753868592.648350,-0.6834695339202880,-0.3153045773506160,9.980456352233890,0.0301415976136922,0.0280301813036203,0.1805964410305020,-0.0616757869720459,0.0613369084894657,0.6233121156692510,1.710855161170950,-9.09595077711423,-38.34177455198290,-0.1580117881960500,-0.1218329595519450,0.0,-0.057,0.004,0.71
2025-07-30 17:43:12.660831,1753868592.660830,-1.6327898502349900,0.2745541632175450,9.616289138793940,0.0268395487219095,-0.0487091690301895,0.1758729219436650,-0.0616915710270404,0.0613684579730033,0.623001754283905,1.730881216696340,-9.097381209518010,-38.23091603226380,-0.1581918555155880,-0.1225976969459200,0.0,-0.057,0.004,0.71
2025-07-30 17:43:12.667789,1753868592.667790,0.159934788942337,-0.8408604860305790,9.43727970123291,0.0047118691727519,0.0176617857068777,0.1769309043884280,-0.0619110465049743,0.0606255196034908,0.6241775155067440,1.742043819680720,-9.098178538228060,-38.16912305253840,-0.158292225755545,-0.1230239646103340,0.0,-0.057,0.004,0.71
2025-07-30 17:43:12.677860,1753868592.67786,-1.864840507507320,-0.510815441608429,9.849061012268070,0.0778611004352569,-0.0051741614006459,0.1693909615278240,-0.0634157881140708,0.0597300380468368,0.6234738826751710,1.7582006012275700,-9.099332593944930,-38.07968372768300,-0.1584375019104930,-0.1236409455729350,0.0,-0.057,0.004,0.71
2025-07-30 17:43:12.691798,1753868592.691800,-0.1879883706569670,0.1798917353153230,9.935070037841800,0.0317655280232429,-0.0003341160481795,0.1659658700227740,-0.0631561577320098,0.0601062849164009,0.6228837966918950,1.780560996323060,-9.100929764873850,-37.95590297128400,-0.1586385587987840,-0.124494824673185,0.0,-0.057,0.004,0.71
2025-07-30 17:43:12.697953,1753868592.697950,-1.4761748313903800,-0.4177352488040920,9.810443878173830,-0.0323309451341629,0.0166690815240144,0.1605557650327680,-0.0627516955137252,0.0590473785996437,0.6243260502815250,1.790435371276620,-9.101635077304580,-37.90124125374730,-0.1587273457407630,-0.1248718986186530,0.0,-0.057,0.004,0.71
2025-07-30 17:43:12.711498,1753868592.711500,-0.517490029335022,-0.5422138571739200,9.456400871276860,0.0197228100150823,-0.0600538477301597,0.1657784134149550,-0.0627201274037361,0.0589842796325683,0.6249467730522160,1.8121654220149900,-9.10318722364077,-37.78094990354990,-0.1589227347920390,-0.1257017066830280,0.0,-0.057,0.004,0.71
2025-07-30 17:43:12.717607,1753868592.717610,-1.1247990131378200,-0.2224530279636380,9.913165092468260,0.0312570668756961,0.0355013236403465,0.1487367451190950,-0.0633340775966644,0.0584210753440856,0.6242648363113400,1.8219659763005200,-9.103887263167140,-37.72669683613270,-0.1590108579642700,-0.126075961629756,0.0,-0.057,0.004,0.71
2025-07-30 17:43:12.739703,1753868592.739700,-0.9825817346572880,0.0229759700596332,10.06710720062260,0.0052676917985081,-0.0720368027687072,0.1605110019445420,-0.0623688101768493,0.0571723878383636,0.6247321963310240,1.857414049106970,-9.10641926813086,-37.53046643652970,-0.1593295946942760,-0.1274296214548300,0.0,-0.057,0.004,0.71
2025-07-30 17:43:12.759665,1753868592.759670,-1.0779330730438200,-0.2653081119060520,9.506705284118650,0.0584308840334415,-0.0334931313991546,0.1575174182653430,-0.0641675367951393,0.0571149587631225,0.624758780002594,1.889438831867150,-9.108706752399850,-37.35318639220850,-0.1596175503919480,-0.1286525556906600,0.0,-0.057,0.004,0.71
2025-07-30 17:43:12.760143,1753868592.760140,-0.6652814745903020,-0.1053502634167670,10.128080368042000,0.0338980741798877,-0.0034158686175942,0.1459968388080600,-0.0630329027771949,0.057855051010847,0.6238800287246700,1.890205725335620,-9.10876153049962,-37.3489410891538,-0.1596244460310350,-0.1286818411438930,0.0,-0.057,0.004,0.71
2025-07-30 17:43:12.767829,1753868592.767830,-1.2774733304977400,-0.2859979271888730,9.843253135681150,-0.0019017306622117,-0.0323679074645042,0.1497881263494490,-0.0627087503671646,0.0575294941663742,0.6241509318351750,1.9025360718408100,-9.109642269453360,-37.28068381505130,-0.1597353162141990,-0.129152701570762,0.0,-0.057,0.004,0.71
2025-07-30 17:43:12.777360,1753868592.77736,-0.6574652194976810,-0.4989379942417150,9.406756401062010,-0.0001746507186908,-0.0190192479640245,0.1466570347547530,-0.0635250136256218,0.0556162148714065,0.6245748400688170,1.913769872650040,-9.10526678427938,-37.20821019479620,-0.1599472448802880,-0.1296393784782540,0.0,-0.057,0.004,0.71
2025-07-30 17:43:12.787140,1753868592.78714,-1.091891169548040,-0.3473828434944150,9.626676559448240,0.0348933860659599,0.0120692728087306,0.1427658498287200,-0.0650125741958618,0.0541135743260383,0.6238011121749880,1.923015635222340,-9.097702069580860,-37.14068810951880,-0.1602065738895190,-0.1300840890999530,0.0,-0.057,0.004,0.71
2025-07-30 17:43:12.802918,1753868592.802920,-0.76339191198349,-0.0932529866695404,9.921086311340330,0.0314469262957572,-0.0062516299076378,0.1434342414140700,-0.0659191310405731,0.0538128279149532,0.6234690546989440,1.9379319218022900,-9.085497835321510,-37.03175401494330,-0.160624952123866,-0.1308015454510680,0.0,-0.057,0.004,0.71
2025-07-30 17:43:12.810555,1753868592.810560,-1.0468038320541400,-0.2937049269676210,9.691472053527830,0.0009575349977239,0.0344724580645561,0.1420923024415970,-0.0655891746282577,0.0543349087238311,0.6244657039642330,1.9451518210396400,-9.079590645140550,-36.97902687121810,-0.1608274588723720,-0.1311488143597520,0.006,-0.053,0.003,0.7
2025-07-30 17:43:12.817910,1753868592.81791,-0.8717126846313480,-0.4706169068813320,9.565735816955570,0.0283596683293581,-0.0121825747191905,0.1422681510448460,-0.0658717826008796,0.0537181794643402,0.6244001388549810,1.9521050762710600,-9.073901618233320,-36.92824703677830,-0.1610224866784610,-0.1314832579962410,0.006,-0.053,0.003,0.7
2025-07-30 17:43:12.827435,1753868592.827440,-0.923158884048462,-0.2294388562440870,9.864005088806150,0.0408568978309631,0.0254822615534067,0.1382342875003810,-0.0643340796232223,0.053974974900484,0.6253440976142880,1.9611098900332700,-9.066534043466850,-36.86248460798940,-0.1612750574548580,-0.1319163792553210,0.006,-0.053,0.003,0.7
2025-07-30 17:43:12.848233,1753868592.848230,-1.0008213520050000,-0.1916043162345890,9.947972297668460,0.0033161628525704,0.0045034671202301,0.1394658386707310,-0.063757486641407,0.0537536405026912,0.6246795058250430,1.9807718989671900,-9.050446945531790,-36.71889235872070,-0.1618265456913830,-0.1328620994323710,0.006,-0.053,0.003,0.7
2025-07-30 17:43:12.849258,1753868592.849260,-0.931144952774048,-0.4494817554950710,9.73854160308838,-0.000399387528887,0.0140541875734925,0.140052318572998,-0.0649236813187599,0.053076647222042,0.6249375343322750,1.9817408783260000,-9.0496541442522,-36.71181587299160,-0.1618537240290400,-0.1329087062330220,0.006,-0.053,0.003,0.7
2025-07-30 17:43:12.857202,1753868592.857200,-0.901232659816742,-0.4018133878707890,9.662155151367190,0.0400418899953365,0.0028297849930822,0.1287894248962400,-0.0658058673143386,0.0524407774209976,0.6248807311058040,1.9892510881970200,-9.043509427193330,-36.656968581878900,-0.1620643735314190,-0.1332699387516710,0.006,-0.053,0.003,0.7
2025-07-30 17:43:12.867478,1753868592.867480,-0.9112744331359860,-0.1451087296009060,9.964035987854000,0.0288532208651304,0.0061556175351142,0.1309285014867780,-0.0658302307128906,0.0527759008109569,0.6246054172515870,1.9989656753951200,-9.035561128716830,-36.58602265609990,-0.1623368523295150,-0.133737199302504,0.006,-0.053,0.003,0.7
2025-07-30 17:43:12.878051,1753868592.878050,-1.0394492149353000,-0.2704854905605320,9.84518337249756,-0.0060613974928855,-0.0040497374720871,0.1294697374105450,-0.0651990920305252,0.0527319498360157,0.6252172589302060,2.008961331972250,-9.027382864388810,-36.51302407209700,-0.1626172146789150,-0.1342179789695070,0.006,-0.053,0.003,0.7
2025-07-30 17:43:12.892711,1753868592.892710,-0.860132098197937,-0.4809742271900180,9.68867301940918,0.0112554067745804,-0.0027139715384691,0.1301028132438660,-0.065173327922821,0.0518212206661701,0.6251122355461120,2.022820509179600,-9.016043537782700,-36.41181007942180,-0.1630059426681790,-0.1348845895669460,0.006,-0.053,0.003,0.7
2025-07-30 17:43:12.899482,1753868592.899480,-0.843650221824646,-0.3542055189609530,9.79319953918457,0.0389709137380123,0.0204485170543193,0.1263886392116550,-0.0660726875066757,0.0517924986779689,0.625125527381897,2.029221768493430,-9.010806143891000,-36.36506148795720,-0.1631854878622840,-0.1351924828301410,0.006,-0.053,0.003,0.7
2025-07-30 17:43:12.908846,1753868592.908850,-0.7274386286735540,-0.3074237704277040,9.78512954711914,0.0091288788244128,0.0070433290675282,0.1207066550850870,-0.0669376999139785,0.0505494810640811,0.6249986886978150,2.038074214252260,-9.00356323385237,-36.30041180733140,-0.1634337849573000,-0.1356182753622520,0.006,-0.053,0.003,0.7
2025-07-30 17:43:12.918039,1753868592.918040,-1.188543677330020,-0.327857106924057,9.647664070129400,-0.0036556136328727,-0.0020981770940124,0.1097119450569150,-0.0686749219894409,0.0477914065122604,0.624399721622467,2.0467652761495100,-8.996452365152710,-36.23694071795520,-0.16367755549038,-0.1360363055149100,0.006,-0.053,0.003,0.7
2025-07-30 17:43:12.931622,1753868592.931620,-0.598462700843811,-0.0215217489749193,9.71172046661377,0.0013935676543042,0.0119308559224009,0.1080546677112580,-0.0689603090286254,0.0483258962631225,0.6250948905944820,2.059606337570930,-8.985946042356770,-36.14316205583090,-0.1640377269429620,-0.1366539459056650,0.006,-0.053,0.003,0.7
2025-07-30 17:43:12.937769,1753868592.937770,-1.1260390281677200,-0.3584971129894260,10.106440544128400,0.0099560590460896,0.0576597973704338,0.1033423393964770,-0.0683549344539642,0.0491926632821559,0.6258118152618410,2.065417508966320,-8.981191447662540,-36.10072289438230,-0.164200721104737,-0.1369334566138230,0.006,-0.053,0.003,0.7
2025-07-30 17:43:12.950463,1753868592.950460,-0.8569835424423220,-0.2181820571422580,9.599313735961910,0.001592049608007,-0.0073962030000984,0.1010910719633100,-0.067178763449192,0.0489904731512069,0.6251384019851690,2.0774182924045700,-8.97137262502253,-36.01308080792630,-0.164537324089586,-0.1375106805931280,0.006,-0.053,0.003,0.7
2025-07-30 17:43:12.960597,1753868592.960600,-0.6331669092178350,-0.3874383270740510,9.733716011047360,0.0127960164099931,0.0498289056122303,0.0914649441838264,-0.0666351243853569,0.0494078509509563,0.6242334842681890,2.0869987687121200,-8.963534053636360,-35.94311429806000,-0.1648060412894250,-0.1379714905632710,0.006,-0.053,0.003,0.7
2025-07-30 17:43:12.967859,1753868592.967860,-1.4645929336547900,-0.2595734000205990,9.81026554107666,0.0365779660642147,0.0172958355396986,0.093550220131874,-0.0669277235865593,0.0496703013777732,0.6245833039283750,2.0938641193262000,-8.957916948687510,-35.89297643371430,-0.1649986035101020,-0.1383017060880470,0.006,-0.053,0.003,0.7
2025-07-30 17:43:12.980423,1753868592.980420,-0.7257733345031740,-0.3084240853786470,9.98073673248291,0.0095374714583158,0.054852906614542,0.1124132499098780,-0.0671945512294769,0.0490220226347446,0.624828040599823,2.095572813938250,-8.946349913813600,-35.84836194545060,-0.1649200559232860,-0.1386721556843780,0.006,-0.053,0.003,0.7
2025-07-30 17:43:12.986734,1753868592.986730,-1.0761902332305900,-0.5435324311256410,9.955833435058590,0.0025723702274262,0.0069570080377161,0.0976462066173553,-0.066920518875122,0.0499423258006572,0.6249286532402040,2.0945784410450000,-8.940202881640810,-35.833627147654100,-0.1648055950233380,-0.1388216415051450,0.006,-0.053,0.003,0.7
2025-07-30 17:43:13.001210,1753868593.00121,-0.8611050248146060,-0.1917134821414950,9.25882625579834,-0.0038522938266396,-0.00467588333413,0.1067782267928120,-0.0678744316101074,0.0497362352907657,0.623665452003479,2.092297544219950,-8.926102792769050,-35.79982840500930,-0.1645430441180800,-0.1391645327246200,0.006,-0.053,0.003,0.7
2025-07-30 17:43:13.007167,1753868593.007170,-0.8277376294136050,-0.6786374449729920,9.91241455078125,-0.0052992147393524,0.0470552407205104,0.0955064743757247,-0.0678744316101074,0.0497362352907657,0.623665452003479,2.091358919319660,-8.920300384538250,-35.78591969107870,-0.1644350002931420,-0.1393056378518460,0.012,-0.051,0.0,0.7
2025-07-30 17:43:13.017651,1753868593.017650,-1.4663310050964400,0.0579502955079078,10.065550804138200,0.0245650056749582,0.0081079956144094,0.1006856709718700,-0.0669678747653961,0.0500369742512702,0.6239975690841680,2.089707028150990,-8.910088694106280,-35.76144166827910,-0.1642448533663030,-0.1395539695479770,0.012,-0.051,0.0,0.7
2025-07-30 17:43:13.031112,1753868593.031110,-0.4170795977115630,-0.4564686715602880,9.995025634765620,-0.0177484471350908,0.053595632314682,0.1000986769795420,-0.0672834441065788,0.0500589497387409,0.6236916184425350,2.087586087494410,-8.896977425143550,-35.730013185136200,-0.1640007147962160,-0.1398728142761480,0.012,-0.051,0.0,0.7
2025-07-30 17:43:13.037948,1753868593.037950,-1.4403607845306400,-0.5067803263664250,9.335386276245120,-0.001343696960248,0.0271440334618091,0.1015373766422270,-0.0690807700157165,0.0494259223341941,0.6233378052711490,2.086508994196520,-8.890319030490800,-35.71405262138780,-0.1638767320639410,-0.1400347356004030,0.012,-0.051,0.0,0.7
2025-07-30 17:43:13.047447,1753868593.047450,-0.4558334648609160,-0.2991995513439180,9.769146919250490,0.0299427881836891,0.0131761636584997,0.0957072749733924,-0.0681800246238708,0.0488790310919284,0.6229441165924070,2.0850122883101400,-8.881066667218100,-35.69187416223380,-0.1637044483021070,-0.1402597380209170,0.012,-0.051,0.0,0.7
2025-07-30 17:43:13.057998,1753868593.058000,-1.337430715560910,-0.1873695999383930,10.093695640564000,0.0164135210216045,0.0526174418628215,0.0918640866875648,-0.0676120221614837,0.0489612743258476,0.6223145723342900,2.083349841086200,-8.870789721174470,-35.66723971789360,-0.1635130862822240,-0.1405096566273480,0.012,-0.051,0.0,0.7
2025-07-30 17:43:13.075583,1753868593.075580,-0.6410897970199590,-0.3877344727516170,9.805152893066410,-0.0272823832929134,-0.0048655890859663,0.0974557846784591,-0.0681927874684333,0.0509094148874282,0.6241203546524050,2.0805790831909600,-8.853661400359640,-35.62618212510650,-0.1631941481410260,-0.1409261895205220,0.012,-0.051,0.0,0.7
2025-07-30 17:43:13.077276,1753868593.077280,-1.1433531045913700,-0.6140449643135070,9.35377597808838,-0.0129622900858521,0.0847164243459701,0.0942781865596771,-0.069092147052288,0.0508807003498077,0.6241335868835450,2.080312326790700,-8.852012360863650,-35.622229280408600,-0.1631634421776510,-0.140966291477955,0.012,-0.051,0.0,0.7
2025-07-30 17:43:13.089054,1753868593.089050,-0.9322661757469180,-0.2906885147094730,10.062658309936500,0.0186647549271583,0.0075820423662662,0.0931276753544807,-0.0696975290775299,0.0500139221549034,0.6234166622161870,2.078456527194960,-8.840540145662740,-35.59472970557130,-0.1629498236314350,-0.1412452770855000,0.012,-0.051,0.0,0.7
2025-07-30 17:43:13.097411,1753868593.097410,-0.9004079103469850,-0.1798068732023240,10.02221965789800,-0.0019269209587946,0.0539384260773658,0.0890830904245376,-0.0700274929404258,0.0494918525218963,0.622420072555542,2.0771398001726300,-8.832400378957470,-35.575218205852200,-0.1627982569897990,-0.1414432229677700,0.012,-0.051,0.0,0.7
2025-07-30 17:43:13.108766,1753868593.108770,-0.9820982813835140,-0.496196985244751,9.727531433105470,-0.0225665532052516,0.0114301806315779,0.0929854065179824,-0.0697033256292343,0.0491662919521331,0.6226909756660460,2.075350642719410,-8.821340133347590,-35.548706146364,-0.162592309529208,-0.1417121901451660,0.012,-0.051,0.0,0.7
2025-07-30 17:43:13.120432,1753868593.120430,-0.8094865679740910,-0.4424092769622800,9.539081573486330,0.0110739842057228,0.0625536516308784,0.0879397764801979,-0.0691109523177146,0.0489134192466735,0.622336745262146,2.073512536725210,-8.809977296769780,-35.52146875852190,-0.1623807276691980,-0.1419885158425640,0.012,-0.051,0.0,0.7
2025-07-30 17:43:13.127563,1753868593.127560,-1.1159659624099700,-0.1808586865663530,9.939251899719240,0.0116822924464941,0.0347403064370155,0.0869035646319389,-0.0691209286451339,0.0497925952076911,0.6227521300315860,2.072388936678480,-8.803031405863530,-35.50481904933820,-0.1622513916088480,-0.1421574286079270,0.012,-0.051,0.0,0.7
2025-07-30 17:43:13.137581,1753868593.137580,-0.8295648694038390,-0.3026901185512540,9.879006385803220,-0.0230963304638862,0.0336443893611431,0.089782603085041,-0.0702669322490692,0.0505072809755802,0.6244266629219060,2.070810449538280,-8.793273485770280,-35.48142874073940,-0.1620696941190510,-0.142394725347738,0.012,-0.051,0.0,0.7
2025-07-30 17:43:13.147251,1753868593.147250,-0.968730628490448,-0.5725789070129400,9.687495231628420,-0.0148278353735804,0.0462411120533943,0.0890579149127006,-0.0693589746952056,0.0502324290573596,0.6243783831596380,2.069286846372270,-8.783854848412360,-35.45885171281980,-0.1618943142482490,-0.142623771283464,0.012,-0.051,0.0,0.7
2025-07-30 17:43:13.162570,1753868593.16257,-0.9054409265518190,-0.3615024387836460,9.86479949951172,0.0204526167362928,0.0297737680375576,0.0837590396404266,-0.0694049373269081,0.0497514717280864,0.6230669021606450,2.0668731160545700,-8.768933607075060,-35.42308461940020,-0.1616164730618350,-0.1429866315948260,0.012,-0.051,0.0,0.7
2025-07-30 17:43:13.168095,1753868593.168100,-0.956007182598114,-0.1485709398984910,10.070269584655800,-0.0009955030400305,0.0403871312737464,0.0834965482354164,-0.068836934864521,0.0498337149620056,0.6224373579025270,2.0660025608060600,-8.76355199303757,-35.41018457390970,-0.1615162646411550,-0.1431175036919340,0.012,-0.051,0.0,0.7
2025-07-30 17:43:13.176900,1753868593.1769,-0.9931871891021730,-0.4010795652866360,9.773653984069820,-0.0300205443054437,0.0255937315523624,0.0841944515705108,-0.0700260996818542,0.0489162467420101,0.6220396161079410,2.0646152472077400,-8.75497587297179,-35.38962710951130,-0.1613565728755670,-0.1433260609779530,0.012,-0.051,0.0,0.7
2025-07-30 17:43:13.187195,1753868593.187200,-0.9329920411109920,-0.507999837398529,9.557136535644530,-0.0107065113261342,0.0397988408803939,0.0823074653744697,-0.071209467947483,0.0488464087247848,0.6223677396774290,2.062993108337200,-8.744948105829620,-35.365589961659100,-0.1611698506949600,-0.1435699199589330,0.012,-0.051,0.0,0.7
2025-07-30 17:43:13.198810,1753868593.19881,-0.9246652126312260,-0.3243060410022740,9.771316528320310,0.0199848040938377,0.036961156874895,0.0847640112042427,-0.072124607861042,0.0488492436707019,0.6220706105232240,2.061163003908030,-8.733634733469900,-35.33847114245800,-0.1609591898841260,-0.1438450427670290,0.012,-0.051,0.0,0.7
2025-07-30 17:43:13.208018,1753868593.208020,-0.9252018332481380,-0.2920474410057070,10.082457542419400,-0.0044480771757662,0.0511379204690456,0.0940376073122024,-0.0718090385198593,0.0488272681832313,0.622376561164856,2.05971216614792,-8.724665918602300,-35.31697236551440,-0.1607921859393990,-0.1440631497516850,0.016,-0.051,0.0,0.68
2025-07-30 17:43:13.218880,1753868593.21888,-1.1248425245285000,-0.3479278087615970,9.71157455444336,-0.0090610943734645,0.0264556128531694,0.0920310094952583,-0.0730067938566207,0.0482133664190769,0.6220138669013980,2.0580007328169600,-8.714086149364360,-35.291612036160000,-0.1605951851959220,-0.1443204325254850,0.016,-0.051,0.0,0.68
2025-07-30 17:43:13.227999,1753868593.228000,-0.8502925038337710,-0.472170352935791,9.444986343383790,-0.0157798267900943,0.0086908424273133,0.0989860594272613,-0.0732176750898361,0.0471668690443038,0.6231546401977540,2.056563907187160,-8.705203954935010,-35.2703208935034,-0.1604297941682970,-0.1445364330420210,0.016,-0.051,0.0,0.68
2025-07-30 17:43:13.237427,1753868593.237430,-0.9472663402557370,-0.388073205947876,10.098825454711900,0.001059521571733,0.044388972222805,0.0968604534864425,-0.0729093104600906,0.0468728616833686,0.6231151819229130,2.0550783959786100,-8.696020795122360,-35.248308319114900,-0.1602587990104740,-0.1447597525469850,0.016,-0.051,0.0,0.68
2025-07-30 17:43:13.247186,1753868593.247190,-1.0958168506622300,-0.3204627633094790,9.843825340271000,-0.0084652286022901,0.0368925184011459,0.0947344675660133,-0.0726438760757446,0.0480967387557029,0.6232508420944210,2.0535407431162600,-8.68651530509982,-35.22552310024800,-0.1600818018983970,-0.1449909105981990,0.016,-0.051,0.0,0.68
2025-07-30 17:43:13.257798,1753868593.257800,-0.8096276521682740,-0.2202172130346300,9.799245834350590,-0.0274761542677879,0.0284118000417947,0.1007076427340510,-0.0728949159383773,0.0474169179797172,0.6238059401512150,2.0518686789878800,-8.676178909103940,-35.200746150874400,-0.1598893328898320,-0.1452422749307400,0.016,-0.051,0.0,0.68
2025-07-30 17:43:13.267906,1753868593.267910,-0.9306793212890620,-0.413683146238327,9.64682674407959,-0.0080350348725914,0.0416689589619636,0.083023615181446,-0.0725521966814994,0.0459086075425148,0.6236264109611510,2.0502760294532300,-8.666333439666930,-35.17714598134740,-0.159706005186235,-0.1454817007281420,0.016,-0.051,0.0,0.68
2025-07-30 17:43:13.277788,1753868593.277790,-1.20977783203125,0.1549642980098720,9.638022422790530,0.000401813944336,-0.011415877379477,0.0867156162858009,-0.0726067349314689,0.0457312315702438,0.6223499774932860,2.0487189925178700,-8.656708120834370,-35.154073525772400,-0.1595267768000970,-0.145715772821045,0.016,-0.051,0.0,0.68
2025-07-30 17:43:13.286867,1753868593.286870,-0.5300813317298890,-0.1811926960945130,10.189454078674300,-0.0284613370895385,0.0636095106601715,0.0784509256482124,-0.072907917201519,0.0462972559034824,0.622734785079956,2.0472884779816100,-8.647864940436190,-35.13287590204410,-0.1593621122337950,-0.1459308245798210,0.016,-0.051,0.0,0.68
2025-07-30 17:43:13.297944,1753868593.297940,-1.3497064113616900,-0.1746386885643010,9.889243125915530,0.0059102196246385,0.0383941121399402,0.0675238594412803,-0.0731833279132843,0.0459525659680366,0.623014509677887,2.045543122522860,-8.637075470780720,-35.107012908450500,-0.1591612067607120,-0.1461932069265780,0.016,-0.051,0.0,0.68
2025-07-30 17:43:13.307843,1753868593.307840,-0.4025372564792630,-0.4582684636116030,9.47239875793457,0.0028081152122467,0.0370712727308273,0.0664748921990394,-0.0732664242386818,0.0478371232748031,0.6226040124893190,2.0439834183991500,-8.627433663875470,-35.08390092999520,-0.1589816713581820,-0.146427679982582,0.016,-0.051,0.0,0.68
2025-07-30 17:43:13.321458,1753868593.321460,-1.3456261157989500,-0.2376121282577510,9.871840476989750,0.0278546884655952,0.0397348441183567,0.057897824794054,-0.0745143145322799,0.0484690926969051,0.6220710277557370,2.0418381725192300,-8.614172144447460,-35.05211228764670,-0.1587347350471710,-0.1467501785576000,0.016,-0.051,0.0,0.68
2025-07-30 17:43:13.327651,1753868593.327650,-0.7878754138946530,-0.0325540229678154,9.802959442138670,-0.0030098580755293,-0.0213856995105743,0.0659249648451805,-0.0744254142045974,0.0474321618676185,0.6232073307037350,2.040862394812310,-8.608140064330790,-35.03765303669230,-0.1586224146136180,-0.1468968689313970,0.016,-0.051,0.0,0.68
2025-07-30 17:43:13.338865,1753868593.338870,-0.9465893507003780,-0.2195621579885480,9.853388786315920,-0.0468729734420776,0.0498249717056751,0.0628125742077827,-0.0746922492980957,0.0467838831245899,0.6234520673751830,2.039095476450630,-8.5972172967355,-35.01147052009400,-0.1584190270643510,-0.1471624928671650,0.016,-0.051,0.0,0.68
2025-07-30 17:43:13.346896,1753868593.346900,-0.908329427242279,-0.3289089202880860,9.833831787109380,-0.017017874866724,0.0115532977506518,0.0732157528400421,-0.0747409909963607,0.0474541373550891,0.6229013800621030,2.037830102195390,-8.589394983486230,-34.99271997498720,-0.1582733715693060,-0.1473527187979060,0.016,-0.051,0.0,0.68
2025-07-30 17:43:13.357382,1753868593.357380,-0.9340153336524960,-0.2131695598363880,9.699649810791020,-0.0009860773570835,0.0473285056650638,0.0750293359160423,-0.0732636377215385,0.0466859228909015,0.6218432188034060,2.036177872932430,-8.579181203016880,-34.968236942245000,-0.1580831857248960,-0.1476011013203460,0.016,-0.051,0.0,0.68
2025-07-30 17:43:13.368023,1753868593.368020,-0.9567972421646120,-0.0394185967743396,9.951873779296880,0.0146838426589965,-0.0078612435609102,0.0782372877001762,-0.0747769698500633,0.0460940040647983,0.6211745738983150,2.0345012633140500,-8.5688167076295,-34.94339263697660,-0.1578901934912120,-0.1478531489843670,0.016,-0.051,0.0,0.68
2025-07-30 17:43:13.377306,1753868593.377310,-0.8725853562355040,-0.071217693388462,9.877120971679690,-0.0008655527490191,0.0019816104322671,0.0811330527067184,-0.0765770822763443,0.0466121733188629,0.621581494808197,2.0292796977594300,-8.554879436534730,-34.91026699572950,-0.1579262443521480,-0.1484904526264670,0.016,-0.051,0.0,0.68
2025-07-30 17:43:13.387418,1753868593.387420,-0.9617396593093870,-0.2900178432464600,9.6787109375,-0.0069836201146245,0.0064889374189078,0.0859167575836181,-0.0753779262304306,0.0466504618525505,0.6215637922286990,2.0214581019029000,-8.536918734039420,-34.867682750273500,-0.158081552160325,-0.1494216155770800,0.016,-0.051,0.0,0.68
2025-07-30 17:43:13.397831,1753868593.397830,-0.7485626935958860,-0.3328593075275420,9.681771278381350,0.0125863747671246,0.0199278593063354,0.0824718028306961,-0.0747855603694915,0.04639757797122,0.6212095618247990,2.0134037742431300,-8.518423610339550,-34.82383140940410,-0.1582414811566740,-0.1503804853073040,0.016,-0.051,0.0,0.68
2025-07-30 17:43:13.406714,1753868593.406710,-0.9995332956314090,-0.0040815244428813,9.617647171020510,0.0038075530901551,-0.0033515742979943,0.0832302197813987,-0.0750695616006851,0.0463564544916152,0.6215243935585020,2.006532838010790,-8.502645904127520,-34.7864229776214,-0.1583779123998560,-0.1511984719909600,0.017,-0.056,0.0,0.67
2025-07-30 17:43:13.417795,1753868593.417800,-0.7324147820472720,-0.1749299764633180,9.816893577575680,-0.0155501719564199,0.0058092079125344,0.0788014605641365,-0.076307475566864,0.046109240502119,0.6205759644508360,1.997961779358400,-8.482964212903740,-34.73975832348090,-0.158548101752193,-0.1522188586755990,0.017,-0.056,0.0,0.67
2025-07-30 17:43:13.427996,1753868593.428000,-0.9572756290435790,-0.1934257894754410,9.894742012023930,0.0016665681032463,0.011616887524724,0.0786395743489265,-0.0762759074568748,0.0460461415350437,0.6211966872215270,1.9900713966852300,-8.464845555488220,-34.696799572011300,-0.1587047754107570,-0.1531582107140050,0.017,-0.056,0.0,0.67
2025-07-30 17:43:13.437490,1753868593.43749,-0.8170872926712040,-0.1751196831464770,9.79061508178711,0.0128236915916204,0.0047450349666178,0.0780272409319877,-0.0750839486718177,0.0458124056458473,0.6208335757255550,1.982727804659140,-8.447982491473270,-34.65681779193670,-0.1588505918403760,-0.1540324671885840,0.017,-0.056,0.0,0.67
2025-07-30 17:43:13.447271,1753868593.447270,-0.9557978510856630,-0.1366585791110990,9.6580810546875,0.0072257271967828,0.0137539645656943,0.0819748193025589,-0.0756735429167747,0.0449140779674053,0.6204270124435430,1.9751621769031700,-8.43060956760865,-34.615627150627800,-0.1590008170739250,-0.1549331570725560,0.017,-0.056,0.0,0.67
2025-07-30 17:43:13.458033,1753868593.458030,-0.8165673613548280,-0.2279616892337800,9.61518096923828,0.0056517529301345,0.0037769456394016,0.0811211168766021,-0.0768081694841384,0.0441739857196807,0.6213057637214660,1.9668378655984400,-8.411494481433750,-34.57030589875600,-0.1591661069414970,-0.155924168423502,0.017,-0.056,0.0,0.67
2025-07-30 17:43:13.467738,1753868593.467740,-0.8681712746620180,-0.199070543050766,9.837698936462400,0.0066773784346878,0.0216579511761665,0.0774193927645683,-0.0771021544933319,0.0450120419263839,0.6220359802246090,1.959331250661040,-8.394257068492640,-34.52943654946960,-0.1593151603999140,-0.156817832816605,0.017,-0.056,0.0,0.67
2025-07-30 17:43:13.478035,1753868593.478040,-0.9617577195167540,-0.1287745237350460,9.895145416259770,0.002386829117313,0.0023349118418991,0.0741865634918212,-0.0762329697608947,0.0445282571017742,0.621021568775177,1.951366548719480,-8.37596775200783,-34.48607317085920,-0.1594733097627840,-0.1577660325825730,0.017,-0.056,0.0,0.67
2025-07-30 17:43:13.487527,1753868593.487530,-0.888964056968689,-0.1654393225908280,9.760316848754890,-0.0132006714120507,0.0004778466827701,0.0739566832780838,-0.0746938735246658,0.0442094467580318,0.6215851306915280,1.944024616428910,-8.359108499237610,-34.44610042712280,-0.1596190932362270,-0.1586400914652220,0.017,-0.056,0.0,0.67
2025-07-30 17:43:13.498006,1753868593.498010,-0.8815983533859250,-0.2726893723011020,9.700551986694340,0.0017491157632321,-0.0186113212257623,0.0750185623764991,-0.0770763903856277,0.0441013127565383,0.6219309568405150,1.9359190213830100,-8.340495650422940,-34.40196996380900,-0.1597800402122210,-0.1596050645906370,0.017,-0.056,0.0,0.67
2025-07-30 17:43:13.507954,1753868593.507950,-0.8137322068214420,-0.2074148803949360,9.875971794128420,0.0186221040785312,-0.0193750541657209,0.0731387883424758,-0.077723316848278,0.0441768206655979,0.6210086941719060,1.9282244875014700,-8.322826719884800,-34.360077500238600,-0.1599328250420700,-0.160521100781224,0.017,-0.056,0.0,0.67
2025-07-30 17:43:13.520047,1753868593.520050,-0.9032386541366580,-0.1060174331068990,9.846059799194340,0.0139085426926612,-0.0067071369849145,0.0743603184819221,-0.0762014016509056,0.0444651581346988,0.6216422915458680,1.918870586927720,-8.301347391566420,-34.30915070661360,-0.1601185587238750,-0.1616346849931630,0.017,-0.056,0.0,0.67
2025-07-30 17:43:13.527241,1753868593.527240,-0.8349757790565490,-0.2385550439357760,9.732540130615230,0.0035046087577939,-0.019645307213068,0.075754813849926,-0.0752532854676246,0.0438236147165298,0.6221796870231630,1.913306046966510,-8.288569558423430,-34.27885487697670,-0.160229049795102,-0.1622971448727230,0.017,-0.056,0.0,0.67
2025-07-30 17:43:13.540338,1753868593.540340,-0.8688731789588930,-0.2776002287864690,9.703218460083010,0.0149986650794744,-0.0173338111490011,0.0711750760674476,-0.0770276486873626,0.0434310548007488,0.6224815249443050,1.9031755745833600,-8.265306991046100,-34.223700081144400,-0.1604302033052670,-0.1635031801535560,0.017,-0.056,0.0,0.67
2025-07-30 17:43:13.546578,1753868593.546580,-0.9330778121948240,-0.1920270174741750,9.784453392028810,0.0107571724802255,-0.0283357705920934,0.070870503783226,-0.0779699459671974,0.0449202246963977,0.6226699352264400,1.8983490636844100,-8.254223891390160,-34.19742240986260,-0.1605260398637660,-0.1640777774879450,0.017,-0.056,0.0,0.67
2025-07-30 17:43:13.558055,1753868593.558060,-0.8752825856208800,-0.2220089137554170,9.788244247436520,0.0042961612343788,-0.0268454868346452,0.0664143338799476,-0.0779527723789215,0.0443130694329738,0.6225998997688290,1.889471691620630,-8.233838813779070,-34.14909004931840,-0.1607023114613900,-0.1651346308611220,0.017,-0.056,0.0,0.67
2025-07-30 17:43:13.567269,1753868593.567270,-0.8657190799713140,-0.2915047705173490,9.5659818649292,0.0091259712353348,-0.0162815134972333,0.0684676468372345,-0.0764122903347015,0.0434186533093452,0.6227830648422240,1.882344602872670,-8.21747290546472,-34.11028700935090,-0.160843828940999,-0.1659831125660790,0.017,-0.056,0.0,0.67
2025-07-30 17:43:13.577780,1753868593.57778,-0.8305195569992070,-0.2552986145019530,9.630167961120600,0.0173760373145341,-0.0167626105248928,0.0657322406768798,-0.0761268883943557,0.0428841710090637,0.6220879554748540,1.8806204448772400,-8.209543146375320,-34.068472348661800,-0.1612499674711430,-0.1668421474163180,0.017,-0.056,0.0,0.67
2025-07-30 17:43:13.586789,1753868593.586790,-0.8808965682983400,-0.2195394784212110,9.803596496582030,0.0134629923850297,-0.0078410590067505,0.0644318461418151,-0.0770090743899345,0.0422483012080192,0.6220311522483830,1.8824270428874500,-8.20825271903213,-34.03388889640470,-0.1617235290098400,-0.1675226118717530,0.017,-0.056,0.0,0.67
2025-07-30 17:43:13.596992,1753868593.596990,-0.8997566103935240,-0.2677233219146730,9.846602439880370,0.0068272477947175,-0.0126020479947328,0.0656706094741821,-0.0775269493460655,0.0409202016890049,0.6228309869766240,1.884473127729640,-8.206791229640500,-33.994720981321300,-0.1622598669669800,-0.1682932802772560,0.017,-0.056,0.0,0.67
2025-07-30 17:43:13.606806,1753868593.606810,-0.8471585512161260,-0.3158173859119420,9.675176620483400,0.0114543782547116,-0.0129482084885239,0.0627703070640564,-0.0766118019819259,0.0409173667430877,0.6231280565261840,1.8864411845203600,-8.205385474579690,-33.957046746280300,-0.1627757515172720,-0.1690345590148600,0.014,-0.069,0.007,0.67
2025-07-30 17:43:13.617790,1753868593.61779,-0.8664412498474120,-0.2915213108062740,9.78506565093994,0.0173989385366439,-0.0157282147556543,0.0625175610184669,-0.0763851329684257,0.0419323183596134,0.6222975850105290,1.888643851389840,-8.203812140866120,-33.91488140341560,-0.1633531341480800,-0.1698642048482880,0.014,-0.069,0.007,0.67
2025-07-30 17:43:13.627949,1753868593.627950,-0.844695508480072,-0.2672060430049900,9.878707885742190,0.0199506115168333,-0.0073773292824625,0.0620312951505184,-0.0775527134537696,0.0418309308588504,0.6229360103607180,1.8906810911404000,-8.20235696939802,-33.87588280868010,-0.1638871535511350,-0.1706315417044270,0.014,-0.069,0.007,0.67
2025-07-30 17:43:13.637911,1753868593.637910,-0.940218448638916,-0.2911194264888760,9.8590087890625,0.0134000200778245,-0.0174256358295679,0.0597566105425357,-0.0793170854449272,0.0405591912567615,0.6228225231170650,1.892678838752180,-8.200930006604710,-33.837640206417100,-0.1644108209235190,-0.1713840036428680,0.014,-0.069,0.007,0.67
2025-07-30 17:43:13.647440,1753868593.64744,-0.8375385999679570,-0.3519207835197450,9.712745666503910,0.0170046854764223,-0.0321740768849849,0.0626383423805236,-0.07776939868927,0.0399367995560169,0.6233510375022890,1.8945897132208700,-8.199565096065740,-33.80106060454450,-0.1649117163349690,-0.172103744364044,0.014,-0.069,0.007,0.67
2025-07-30 17:43:13.656770,1753868593.65677,-0.90505450963974,-0.3075214922428130,9.748059272766110,0.0182161275297403,-0.0275979675352573,0.0582031160593032,-0.0762447044253349,0.0390739329159259,0.6232238411903380,1.896460713060320,-8.19822866740906,-33.765244317105300,-0.1654021594539490,-0.1728084661005220,0.014,-0.069,0.007,0.67
2025-07-30 17:43:13.668042,1753868593.668040,-0.8967911601066590,-0.296653002500534,9.828688621521000,0.01611765101552,-0.0329813621938228,0.0588774979114532,-0.0772013962268829,0.0400190465152263,0.6227214932441710,1.8987211359875,-8.196614079362390,-33.72197335813080,-0.165994681616297,-0.1736598660508750,0.014,-0.069,0.007,0.67
2025-07-30 17:43:13.677752,1753868593.677750,-0.8642534017562870,-0.3118732869625090,9.795048713684080,0.0166053269058465,-0.0270505808293819,0.0596276149153709,-0.0787404924631118,0.0403378643095493,0.6221579313278200,1.900668347048780,-8.19522321411054,-33.684698169963900,-0.1665051018985830,-0.1743932931370060,0.014,-0.069,0.007,0.67
2025-07-30 17:43:13.688079,1753868593.688080,-0.859632134437561,-0.3570556044578550,9.70224666595459,0.0276821125298738,-0.0250212233513593,0.0576805025339126,-0.0777837932109832,0.0393927507102489,0.6226602792739870,1.902739293770110,-8.193743966231150,-33.645054327415900,-0.1670479568726110,-0.175173325897477,0.014,-0.069,0.007,0.67
2025-07-30 17:43:13.697705,1753868593.697710,-0.904617726802826,-0.3125979602336880,9.690814971923830,0.026494488120079,-0.0222040582448244,0.0577940531075,-0.0765201225876808,0.0387292355298996,0.6235036253929140,1.9046696274403600,-8.192365156260420,-33.60810222077780,-0.1675539531030490,-0.1759003960272540,0.014,-0.069,0.007,0.67
2025-07-30 17:43:13.706890,1753868593.70689,-0.8616862893104550,-0.2923179566860200,9.815452575683590,0.0230155512690544,-0.0345251150429248,0.056729182600975,-0.0771197006106376,0.0387100949883461,0.6235125064849850,1.9065115580057400,-8.191049491374040,-33.57284240237410,-0.1680367763253600,-0.1765941686717690,0.014,-0.069,0.007,0.67
2025-07-30 17:43:13.719425,1753868593.719430,-0.8565574884414670,-0.3680281341075900,9.687264442443850,0.0181195642799139,-0.0344304516911506,0.0591529384255409,-0.0782858878374099,0.0380331017076969,0.623770534992218,1.9090252374210400,-8.189254005808790,-33.52472338997750,-0.16869568433089,-0.1775409589841730,0.014,-0.069,0.007,0.67
2025-07-30 17:43:13.727782,1753868593.727780,-0.8662768602371220,-0.3727725148200990,9.66325855255127,0.0260664895176887,-0.0194132104516029,0.0589567981660366,-0.0777120739221572,0.0389629714190959,0.6238667368888860,1.910701119320520,-8.188056947130090,-33.492642217889500,-0.169134981400026,-0.1781721885425260,0.014,-0.069,0.007,0.67
2025-07-30 17:43:13.737072,1753868593.737070,-0.8600869178771970,-0.3035385608673100,9.7162504196167,0.0273661278188228,-0.0106121404096484,0.0582877658307552,-0.0777350515127182,0.0387224964797496,0.6232109665870670,1.9125640868605500,-8.18672625583099,-33.456979691631200,-0.1696233190212430,-0.1788738848720130,0.014,-0.069,0.007,0.67
2025-07-30 17:43:13.748186,1753868593.748190,-0.8985905051231380,-0.3439439833164220,9.774247169494630,0.0260940603911876,-0.0174447204917669,0.0609108507633209,-0.0768127143383026,0.0389916859567165,0.6238534450531010,1.9147928587031300,-8.185134275705270,-33.41431462492880,-0.1702075445197830,-0.1797133632781580,0.014,-0.069,0.007,0.67
2025-07-30 17:43:13.757560,1753868593.75756,-0.8400565981864930,-0.3773083984851840,9.72377586364746,0.0277983918786048,-0.0211416315287351,0.0565740950405597,-0.0768113210797309,0.0384160876274108,0.623473048210144,1.9166726558229000,-8.183791563276000,-33.37832993238680,-0.1707002936601240,-0.1804213985556240,0.014,-0.069,0.007,0.67
2025-07-30 17:43:13.767742,1753868593.767740,-0.907945454120636,-0.3659289479255680,9.709725379943850,0.0318820402026176,-0.0263486392796039,0.0599049068987369,-0.0774108991026878,0.0383969470858573,0.6234818696975710,1.9187144854588400,-8.182333113317860,-33.339243474119400,-0.1712355162047580,-0.1811904642157580,0.014,-0.069,0.007,0.67
2025-07-30 17:43:13.777272,1753868593.777270,-0.8506450057029720,-0.3075149953365330,9.780142784118650,0.0271111987531185,-0.0263038221746683,0.0582378692924976,-0.0776561349630355,0.038564745336771,0.624762773513794,1.926710553822710,-8.187226839935480,-33.307527230595500,-0.1718240167135770,-0.1822820824655060,0.014,-0.069,0.007,0.67
2025-07-30 17:43:13.787111,1753868593.787110,-0.8554183840751650,-0.3605788052082060,9.822476387023930,0.0328934304416179,-0.0157513432204723,0.0602106265723705,-0.0758474320173263,0.037743005901575,0.6243208050727840,1.938549031770210,-8.195964764087980,-33.2776491680944,-0.1724831477867460,-0.1836280228061750,0.014,-0.069,0.007,0.67
2025-07-30 17:43:13.797170,1753868593.79717,-0.9187524914741520,-0.3822787404060360,9.752971649169920,0.0358626171946525,-0.0253615137189626,0.0562177412211895,-0.0767985507845878,0.0363856963813304,0.6222968101501470,1.9506520022220200,-8.204897908897360,-33.247103576911900,-0.1731570050121270,-0.185004033831008,0.014,-0.069,0.007,0.67
2025-07-30 17:43:13.807377,1753868593.807380,-0.8551773428916930,-0.3282561302185060,9.681798934936520,0.0286291260272264,-0.0289788525551557,0.0586733072996139,-0.0777078941464424,0.0372361615300178,0.6227254867553710,1.9629334047103400,-8.213962753542520,-33.216107657269600,-0.1738407968000630,-0.1864003311525340,0.007,-0.085,0.012,0.66
2025-07-30 17:43:13.817860,1753868593.81786,-0.878269612789154,-0.3661898970603940,9.74791431427002,0.029774397611618,-0.0329037867486476,0.057142686098814,-0.0767296105623245,0.03710712864995,0.6242640614509580,1.9755464268678400,-8.223272365085050,-33.1842747927729,-0.174543052180142,-0.187834330980452,0.007,-0.085,0.012,0.66
2025-07-30 17:43:13.827841,1753868593.827840,-0.8866298198699950,-0.3521963953971860,9.713845252990720,0.0330444164574146,-0.0272514335811138,0.0588773675262928,-0.0757571458816528,0.0361304692924022,0.6250767707824710,1.9875558782780000,-8.232136483935480,-33.153965225831300,-0.1752117025447630,-0.1891997096375660,0.007,-0.085,0.012,0.66
2025-07-30 17:43:13.837983,1753868593.837980,-0.8575320243835450,-0.392370194196701,9.735541343688970,0.0362322181463241,-0.0224378053098917,0.0597286783158779,-0.0757399648427963,0.0355233214795589,0.6250067353248600,1.9997586788724200,-8.241143312897360,-33.123167682391500,-0.1758911180141450,-0.1905870705518670,0.007,-0.085,0.012,0.66
2025-07-30 17:43:13.847309,1753868593.847310,-0.8401937484741210,-0.3668789863586430,9.715713500976560,0.0369025319814682,-0.0188579857349395,0.0584980510175228,-0.0778542608022689,0.0354878604412078,0.6247273683547970,2.010980103265960,-8.249425792762460,-33.094846945480200,-0.1765158933894760,-0.1918628568343600,0.007,-0.085,0.012,0.66
2025-07-30 17:43:13.857878,1753868593.857880,-0.9668043851852420,-0.3321219682693480,9.73308563232422,0.0305819157510995,-0.0248268656432628,0.0563007295131683,-0.078759416937828,0.0346115194261074,0.6240148544311520,2.023696684853020,-8.258811841026390,-33.06275271671670,-0.177223914649109,-0.1933086305418700,0.007,-0.085,0.012,0.66
2025-07-30 17:43:13.867434,1753868593.867430,-0.8306453824043270,-0.3708690702915190,9.75796127319336,0.0322376266121864,-0.0319706015288829,0.0574997141957283,-0.0765634253621101,0.0333380103111267,0.6250852346420290,2.0351946502163400,-8.267298434463340,-33.033734043092900,-0.1778640869992040,-0.1946158573227740,0.007,-0.085,0.012,0.66
