time,timestamp,acce_x,acce_y,acce_z,gyro_x,gyro_y,gyro_z,magX,magY,magZ,roll,pitch,yaw,gt_px,gt_py,dvl_vx,dvl_vy,dvl_vz,depth
2025-07-30 17:15:19.140371,1753866919.140371,-0.8701806664466858,-0.3485916554927826,9.821178436279297,0.020250579342246,0.0459881201386451,-0.0484665185213089,0.5119587182998657,0.0390901789069175,0.5699576139450073,1.3600197760420254,-9.37521162593228,306.23602964850386,0.0,0.0,0.039,-0.021,-0.006,0.47
2025-07-30 17:15:19.147388,1753866919.147388,-0.8932886719703674,-0.3167308270931244,9.854955673217772,0.0245532412081956,0.0420881621539592,-0.0470281690359115,0.5128811001777649,0.039359375834465,0.5706000924110413,1.3805237398092765,-9.338023064452097,306.20849001129386,-0.0002872810992829,-0.0007489462296195,0.039,-0.021,-0.006,0.47
2025-07-30 17:15:19.157586,1753866919.157586,-0.8924274444580078,-0.3242855370044708,9.841004371643066,0.0254500247538089,0.0395535714924335,-0.0422255136072635,0.5132195949554443,0.0395778752863407,0.5715617537498474,1.4103234933406004,-9.283974492240704,306.1684648527189,-0.000704805537485,-0.0018374388403275,0.039,-0.021,-0.006,0.47
2025-07-30 17:15:19.167148,1753866919.167148,-0.8803991675376892,-0.3435642719268799,9.817150115966797,0.0263107139617204,0.0403746664524078,-0.0459788329899311,0.5122728943824768,0.0396438091993331,0.570643961429596,1.4382645069265938,-9.23329716402473,306.1309362369756,-0.0010962871646075,-0.0028580374433352,0.039,-0.021,-0.006,0.47
2025-07-30 17:15:19.177598,1753866919.177598,-0.8743705153465271,-0.3418513238430023,9.806626319885254,0.0264351610094308,0.0375579744577407,-0.0419903025031089,0.5121538043022156,0.0401682332158088,0.5685064792633057,1.468799953629683,-9.177914246363876,306.0899229415078,-0.0015241194020975,-0.0039734026447971,0.039,-0.021,-0.006,0.47
2025-07-30 17:15:19.187823,1753866919.187823,-0.8763154745101929,-0.3478066921234131,9.79306983947754,0.024059759452939,0.0411948598921299,-0.0422859266400337,0.514275312423706,0.0404757186770439,0.5691311955451965,1.4986784319038189,-9.123722889080716,306.04979204479946,-0.0019427468529129,-0.005064770826296,0.039,-0.021,-0.006,0.47
2025-07-30 17:15:19.197035,1753866919.197035,-0.8883138298988342,-0.3362351059913635,9.780656814575195,0.0226406920701265,0.0426918640732765,-0.0398226380348205,0.5142595171928406,0.0405072681605815,0.5688208937644958,1.5255967205123964,-9.074900503213046,306.0136370890549,-0.0023198990772374,-0.0060480124565511,0.039,-0.021,-0.006,0.47
2025-07-30 17:15:19.207279,1753866919.207279,-0.8704450130462646,-0.3240988850593567,9.770880699157717,0.0246110446751117,0.0448444671928882,-0.0391688123345375,0.5140314698219299,0.0400679185986518,0.5700317025184631,1.5555302364385868,-9.020609322738116,305.9734322692267,-0.0027392976607646,-0.0071413909928507,0.039,-0.021,-0.006,0.47
2025-07-30 17:15:19.217180,1753866919.21718,-0.8830956220626831,-0.333315372467041,9.78911304473877,0.0306097548454999,0.0442225188016891,-0.0383699536323547,0.5131005644798279,0.0401023067533969,0.5694242715835571,1.5844619277615597,-8.968135177070312,305.9345730373265,-0.0031446596767009,-0.0081981759822714,0.039,-0.021,-0.006,0.47
2025-07-30 17:15:19.227602,1753866919.227602,-0.8786340951919556,-0.3411649167537689,9.818167686462402,0.0326602980494499,0.0417538285255432,-0.0396829433739185,0.5130202174186707,0.040835652500391,0.5682529211044312,1.614915863005277,-8.912900098820053,305.89366922293493,-0.0035713498568835,-0.0093105638228259,0.039,-0.021,-0.006,0.47
2025-07-30 17:15:19.237413,1753866919.237413,-0.878194272518158,-0.3542118370532989,9.819790840148926,0.0318716689944267,0.0459056384861469,-0.0384547226130962,0.5139138102531433,0.0400167442858219,0.5675138235092163,1.6435842096133562,-8.860903588171091,305.85516369912705,-0.003973022149211,-0.0103577296462381,0.039,-0.021,-0.006,0.47
2025-07-30 17:15:19.247960,1753866919.24796,-0.862311601638794,-0.3531984388828277,9.815023422241213,0.0304825417697429,0.0449789129197597,-0.0386860221624374,0.5136067867279053,0.0397351384162902,0.5671728849411011,1.674403901405536,-8.805005127950219,305.8137686234961,-0.0044048369455169,-0.0114834774395821,0.039,-0.021,-0.006,0.47
2025-07-30 17:15:19.257001,1753866919.257001,-0.856920599937439,-0.3723785877227783,9.810815811157228,0.0274731311947107,0.0445099547505378,-0.0405654907226562,0.5129972696304321,0.040595170110464,0.5675971508026123,1.7008219743916448,-8.757089995901405,305.77828552597987,-0.0047749806472195,-0.012448447743927,0.04,-0.033,-0.008,0.47
2025-07-30 17:15:19.267280,1753866919.26728,-0.8495048880577087,-0.3781696856021881,9.805350303649902,0.0313459374010562,0.0462194494903087,-0.0420294180512428,0.5145033597946167,0.0409150645136833,0.5679203867912292,1.7308585988305447,-8.70261180489,305.73794221726894,-0.0051958238844348,-0.0135455925145368,0.04,-0.033,-0.008,0.47
2025-07-30 17:15:19.276809,1753866919.276809,-0.8628615140914917,-0.3883045315742492,9.799543380737305,0.0312757901847362,0.0455965772271156,-0.0431325510144233,0.5150957703590393,0.0406621806323528,0.5675661563873291,1.758702774016088,-8.652110114948147,305.7005436687871,-0.0055859487084312,-0.0145626539109964,0.04,-0.033,-0.008,0.47
2025-07-30 17:15:19.287704,1753866919.287704,-0.8550149202346802,-0.3730139136314392,9.828082084655762,0.0306998677551746,0.0475393794476985,-0.0449894443154335,0.5148117542266846,0.0406210571527481,0.5678809881210327,1.7905389206734246,-8.59436808464133,305.65778335477864,-0.006032005056973,-0.015725529649331,0.04,-0.033,-0.008,0.47
2025-07-30 17:15:19.297752,1753866919.297752,-0.8542562127113342,-0.3814992606639862,9.849366188049316,0.0324133709073066,0.047032605856657,-0.047452937811613,0.5138794183731079,0.0412310473620891,0.5676538944244385,1.8198997663465928,-8.541115570794672,305.6183477096909,-0.0064433799558272,-0.0167979903166914,0.04,-0.033,-0.008,0.47
2025-07-30 17:15:19.307476,1753866919.307476,-0.852942943572998,-0.3687183856964111,9.847400665283203,0.0306200850754976,0.0453393571078777,-0.0454598069190979,0.5141634345054626,0.0412721708416938,0.5673391222953796,1.848314521747738,-8.489579004978667,305.58018279367565,-0.006841499180976,-0.0178358932395028,0.04,-0.033,-0.008,0.47
2025-07-30 17:15:19.317569,1753866919.317569,-0.8511321544647217,-0.3719010651111603,9.82537078857422,0.0344678685069084,0.0480756275355815,-0.050092127174139,0.5147400498390198,0.041050836443901,0.566674530506134,1.8778070397783533,-8.43608767362259,305.5405702945418,-0.0072547189416346,-0.0189131634898675,0.04,-0.033,-0.008,0.47
2025-07-30 17:15:19.327766,1753866919.327766,-0.8410719037055969,-0.381223052740097,9.81174373626709,0.036440409719944,0.0490202791988849,-0.0534557402133941,0.5156064033508301,0.0417182557284832,0.5664209127426147,1.907603309913978,-8.382045419334728,305.5005498146453,-0.0076721945739689,-0.0200015288629299,0.04,-0.033,-0.008,0.47
2025-07-30 17:15:19.337788,1753866919.337788,-0.8383216261863708,-0.388533353805542,9.815752029418944,0.0373192131519317,0.0504933632910251,-0.0568937174975872,0.515932023525238,0.040817093104124,0.5663114190101624,1.9368889142400345,-8.328929372636312,305.4612152290125,-0.0080825152660778,-0.0210712411971451,0.04,-0.033,-0.008,0.47
2025-07-30 17:15:19.347755,1753866919.347755,-0.8415646553039551,-0.4115289449691772,9.808162689208984,0.0379195176064968,0.0521381087601184,-0.0598442628979682,0.5168471336364746,0.0408142581582069,0.5666085481643677,1.9660128890056277,-8.276106477589671,305.4220977340608,-0.0084905713659189,-0.0221350497046037,0.04,-0.033,-0.008,0.47
2025-07-30 17:15:19.357569,1753866919.357569,-0.8366461992263794,-0.4055041670799255,9.820379257202148,0.0381298847496509,0.0519634559750556,-0.0610264614224433,0.5165631175041199,0.0407731421291828,0.5669233202934265,1.994690292442526,-8.224093540339531,305.3835800456889,-0.0088923705535028,-0.0231825463458945,0.04,-0.033,-0.008,0.47
2025-07-30 17:15:19.367456,1753866919.367456,-0.8376659750938416,-0.3946337401866913,9.829634666442873,0.0348617769777774,0.0573721379041671,-0.0636814311146736,0.5162705183029175,0.0410356000065803,0.5672731399536133,2.0235808796962425,-8.171693946169377,305.34477602219465,-0.0092971566601986,-0.0242378299310969,0.04,-0.033,-0.008,0.47
2025-07-30 17:15:19.377513,1753866919.377513,-0.8243688344955444,-0.3988635838031769,9.829590797424316,0.0333421342074871,0.0581681802868843,-0.0664656907320022,0.5162002444267273,0.0408897697925567,0.5656862854957581,2.052968199176729,-8.118393416103896,305.3053048191506,-0.0097089024836484,-0.0253112576045641,0.04,-0.033,-0.008,0.47
2025-07-30 17:15:19.387046,1753866919.387046,-0.8176168203353882,-0.4283702373504638,9.826671600341797,0.032381746917963,0.0612288750708103,-0.0716962814331054,0.5167840123176575,0.0409404598176479,0.5653671026229858,2.0808249145867905,-8.067868981637337,305.2678894274262,-0.0100992030087691,-0.0263287770565479,0.04,-0.033,-0.008,0.47
2025-07-30 17:15:19.397612,1753866919.397612,-0.8123270273208618,-0.4202541410923004,9.80402374267578,0.0365171544253826,0.0649038702249527,-0.0733345746994018,0.5161744356155396,0.0418004989624023,0.5657913684844971,2.111699644031025,-8.0118706982247,305.22642042867545,-0.0105317889377869,-0.0274565352046927,0.04,-0.033,-0.008,0.47
2025-07-30 17:15:19.406770,1753866919.40677,-0.8071345090866089,-0.4096379578113556,9.821681022644045,0.0350010730326175,0.0607070177793502,-0.0741612538695335,0.5170494318008423,0.0421643517911434,0.5655027627944946,2.1384597864748387,-7.963335146085274,305.19047788493344,-0.0109067253757114,-0.028434000245837,0.04,-0.033,-0.008,0.47
2025-07-30 17:15:19.417625,1753866919.417625,-0.8045672178268433,-0.4115574061870575,9.829803466796877,0.0372168831527233,0.062935009598732,-0.0779837220907211,0.5179257988929749,0.041952583938837,0.5648337006568909,2.1701788910366675,-7.905805398009049,305.14787477452154,-0.0113511418470937,-0.0295926007992788,0.04,-0.033,-0.008,0.47
2025-07-30 17:15:19.427092,1753866919.427092,-0.8066079616546631,-0.4187304377555847,9.812493324279783,0.0384738147258758,0.0649747103452682,-0.0788555219769477,0.5173420310020447,0.0419018864631652,0.5651529431343079,2.197842626324969,-7.855630976506036,305.1107185815844,-0.011738738527136,-0.0306030712856956,0.039,-0.046,-0.005,0.48
2025-07-30 17:15:19.437621,1753866919.437621,-0.7789504528045654,-0.4263050258159637,9.80458164215088,0.0403373427689075,0.0641647428274154,-0.0758198350667953,0.5167108774185181,0.0419458374381065,0.5645410418510437,2.228609370502514,-7.7998285487228145,305.0693946218662,-0.0121698114742507,-0.0317268850668264,0.039,-0.046,-0.005,0.48
2025-07-30 17:15:19.447401,1753866919.447401,-0.7889807224273682,-0.4369184970855713,9.81233024597168,0.0421735197305679,0.0672643706202507,-0.0825411230325698,0.5175715088844299,0.041765633970499,0.5635616779327393,2.257187148822403,-7.747996304085623,305.0310107436985,-0.0125702148140144,-0.0327707427114526,0.039,-0.046,-0.005,0.48
2025-07-30 17:15:19.457342,1753866919.457342,-0.7693960070610046,-0.461205780506134,9.801280975341797,0.0421321131289005,0.0679022669792175,-0.0777205824851989,0.5187878608703613,0.0411967672407627,0.5634739398956299,2.2862351855617438,-7.695311139771928,304.9919952439374,-0.0129772069459365,-0.0338317774382368,0.039,-0.046,-0.005,0.48
2025-07-30 17:15:19.467753,1753866919.467753,-0.7494067549705505,-0.4687578976154327,9.789315223693848,0.0467922464013099,0.0674393624067306,-0.0808070525527,0.5190947651863098,0.0414783731102943,0.5638148784637451,2.316657073565024,-7.640134186418142,304.9511344733878,-0.013403448112135,-0.0349429946924516,0.039,-0.046,-0.005,0.48
2025-07-30 17:15:19.477566,1753866919.477566,-0.7500951290130615,-0.4546736776828766,9.807376861572266,0.0459085963666439,0.0695012807846069,-0.0838467925786972,0.5190790295600891,0.041509922593832,0.5635045170783997,2.345331690285363,-7.588126303506827,304.91262052795867,-0.0138052082550247,-0.0359903895436259,0.039,-0.046,-0.005,0.48
2025-07-30 17:15:19.487889,1753866919.487889,-0.750850260257721,-0.4735001921653747,9.77811050415039,0.0476017668843269,0.0670754835009574,-0.0829055160284042,0.5193629860877991,0.0415510460734367,0.5631897449493408,2.37549650368601,-7.533415612909528,304.8721050438801,-0.0142278475481765,-0.0370922166595943,0.039,-0.046,-0.005,0.48
2025-07-30 17:15:19.497768,1753866919.497768,-0.7504311203956604,-0.4747762382030487,9.76285457611084,0.0522202216088771,0.069286048412323,-0.0828283578157424,0.5187720656394958,0.0412283167243003,0.5631635785102844,2.404363403848969,-7.481058980619375,304.8333328353994,-0.014632301774971,-0.0381466350288066,0.039,-0.046,-0.005,0.48
2025-07-30 17:15:19.507730,1753866919.50773,-0.7257264852523804,-0.463298887014389,9.75916862487793,0.0567336231470108,0.0756994038820266,-0.0879986956715583,0.5190618634223938,0.0421170704066753,0.5635745525360107,2.4334734450317628,-7.428261357266853,304.79423405516155,-0.0150401626513407,-0.0392099345856827,0.039,-0.046,-0.005,0.48
2025-07-30 17:15:19.516895,1753866919.516895,-0.7288306951522827,-0.442415326833725,9.767464637756348,0.0565209127962589,0.0764781385660171,-0.082894742488861,0.5198349356651306,0.0423981845378875,0.5610784292221069,2.4602544878497747,-7.37968789758625,304.7582634393487,-0.0154153919244723,-0.0401881630527007,0.039,-0.046,-0.005,0.48
2025-07-30 17:15:19.527790,1753866919.52779,-0.7137372493743896,-0.4516856670379638,9.757884979248049,0.054533552378416,0.0771502703428268,-0.0858326032757759,0.5213496685028076,0.0424144975841045,0.5613666772842407,2.492090634507111,-7.321945867279429,304.7155031253402,-0.015861448273014,-0.0413510387910352,0.039,-0.046,-0.005,0.48
2025-07-30 17:15:19.537086,1753866919.537086,-0.7145313620567322,-0.4707262814044952,9.7878999710083,0.0588908344507217,0.0852334424853324,-0.082812912762165,0.5217211246490479,0.0419942997395992,0.5625686645507812,2.519254154172944,-7.272678699595272,304.6790187906314,-0.0162420364304344,-0.0423432379515417,0.039,-0.046,-0.005,0.48
2025-07-30 17:15:19.547772,1753866919.547772,-0.7136219143867493,-0.4950737059116363,9.812448501586914,0.0607017241418361,0.0840946659445762,-0.0806134790182113,0.5217297077178955,0.0416907258331775,0.5625336766242981,2.5504793132245624,-7.216044833075552,304.6370791168265,-0.0166795322297569,-0.0434837962068353,0.039,-0.046,-0.005,0.48
2025-07-30 17:15:19.557348,1753866919.557348,-0.7203058004379272,-0.4867499768733978,9.832818984985352,0.0641491562128067,0.0804213210940361,-0.0811110809445381,0.5214543342590332,0.0413460172712802,0.562813401222229,2.578461430879812,-7.165292953361927,304.59949529267726,-0.0170715897661199,-0.0445058962140614,0.039,-0.046,-0.005,0.48
2025-07-30 17:15:19.567468,1753866919.567468,-0.721283495426178,-0.4835506081581116,9.824742317199709,0.0641578435897827,0.0858611986041069,-0.0832899659872055,0.5225875377655029,0.0426617190241813,0.5623151063919067,2.608032673653239,-7.1116588369340805,304.55977705541,-0.0174859125393917,-0.045586042035217,0.039,-0.046,-0.005,0.48
2025-07-30 17:15:19.578074,1753866919.578074,-0.7214837074279785,-0.4463388919830322,9.787752151489258,0.0622456185519695,0.08437280356884,-0.0847934186458587,0.522491455078125,0.043426614254713,0.5608333349227905,2.6390244451929816,-7.055448271290845,304.5181508530626,-0.0179201383455689,-0.0467180753682544,0.039,-0.046,-0.005,0.48
2025-07-30 17:15:19.587645,1753866919.587645,-0.7206001281738281,-0.4294723868370056,9.794981956481934,0.0622119419276714,0.0863679125905036,-0.0890637338161468,0.5221686959266663,0.0431765653192997,0.5601819753646851,2.6669919325862925,-7.004722926856045,304.4805866793629,-0.0183119908972869,-0.0477396409773689,0.039,-0.046,-0.005,0.48
2025-07-30 17:15:19.597213,1753866919.597213,-0.7209306955337524,-0.4555485546588897,9.809370040893556,0.0643619894981384,0.0905905589461326,-0.0891853794455528,0.5227453112602234,0.0429552383720874,0.5595173835754395,2.694950363150784,-6.954014009022424,304.4430346702272,-0.0187037165537486,-0.0487608757686047,0.039,-0.046,-0.005,0.48
2025-07-30 17:15:19.607095,1753866919.607095,-0.7061342597007751,-0.4408164024353027,9.802644729614258,0.0721437931060791,0.0860849246382713,-0.0882145017385482,0.5233105421066284,0.0441886894404888,0.5596486330032349,2.7238263201425625,-6.901640950131094,304.4042502971825,-0.0191082976757994,-0.0498156249556955,0.039,-0.046,-0.005,0.48
2025-07-30 17:15:19.617750,1753866919.61775,-0.715151309967041,-0.4354441463947296,9.849448204040527,0.0711331591010093,0.0902330875396728,-0.0915700793266296,0.5235873460769653,0.0439577847719192,0.5589884519577026,2.7549609109059903,-6.845171349623143,304.36243226901786,-0.0195445245225581,-0.0509528750322032,0.039,-0.046,-0.005,0.48
2025-07-30 17:15:19.627462,1753866919.627462,-0.7236550450325012,-0.4192915856838226,9.896986961364746,0.0668670013546943,0.0873778536915779,-0.0905451029539108,0.5250546932220459,0.0440687462687492,0.5583456158638,2.7833401356709992,-6.79369922662714,304.32431507552303,-0.0199421459278548,-0.0519894801310293,0.039,-0.046,-0.005,0.48
2025-07-30 17:15:19.637568,1753866919.637568,-0.7014704346656799,-0.4459094703197479,9.898443222045898,0.0649895071983337,0.0865388438105583,-0.0872450098395347,0.525355875492096,0.04350271448493,0.5579608082771301,2.8128709710543105,-6.740138398112237,304.28465111092595,-0.0203559025530597,-0.0530681499954958,0.04,-0.056,0.002,0.48
2025-07-30 17:15:19.647680,1753866919.64768,-0.7042881846427917,-0.4548501372337341,9.869243621826172,0.0666610151529312,0.0814726129174232,-0.0852775424718856,0.5259627103805542,0.0437938868999481,0.558297336101532,2.8424192234161203,-6.686545979979686,304.24496375293654,-0.0207699032076038,-0.0541474560481904,0.04,-0.056,0.002,0.48
2025-07-30 17:15:19.657113,1753866919.657113,-0.7020992040634155,-0.450912594795227,9.83775520324707,0.0682344362139701,0.0755884796380996,-0.0816391110420227,0.5259067416191101,0.0441921167075634,0.5574012398719788,2.869983333587412,-6.636552251089619,304.2079413702037,-0.0211561040398259,-0.0551542875379426,0.04,-0.056,0.002,0.48
2025-07-30 17:15:19.667770,1753866919.66777,-0.7009832859039307,-0.4160609245300293,9.834941864013672,0.0672618374228477,0.0721034184098243,-0.0785452723503112,0.5259554982185364,0.0435218550264835,0.5579519271850586,2.901123497783959,-6.580072541904022,304.1661158561535,-0.0215924089759731,-0.0562917411946832,0.04,-0.056,0.002,0.48
2025-07-30 17:15:19.677796,1753866919.677796,-0.7211506962776184,-0.4254889786243438,9.844744682312012,0.0644699037075042,0.072594366967678,-0.0760632827877998,0.5258593559265137,0.0442867651581764,0.5564702153205872,2.9304202489762545,-6.526936277850311,304.12676629874966,-0.022002885846859,-0.0573618606893644,0.04,-0.056,0.002,0.48
2025-07-30 17:15:19.687428,1753866919.687428,-0.7293102741241455,-0.4204726815223694,9.877948760986328,0.0704614892601966,0.0659010559320449,-0.072421409189701,0.5260888338088989,0.0441505014896392,0.5548789501190186,2.9585660862293874,-6.475887455730795,304.0889625767123,-0.0223972372590105,-0.0583899408659343,0.04,-0.056,0.002,0.48
2025-07-30 17:15:19.697200,1753866919.6972,-0.7347992658615112,-0.3918576836585998,9.913031578063965,0.0669727399945259,0.0609118565917015,-0.0658517181873321,0.5264201760292053,0.0440969765186309,0.5554952621459961,2.9871208741376583,-6.424096909388897,304.0506095778225,-0.0227973184800465,-0.0594329587420994,0.04,-0.056,0.002,0.48
2025-07-30 17:15:19.707087,1753866919.707087,-0.731677770614624,-0.4221818745136261,9.912129402160645,0.0659717172384262,0.0589839145541191,-0.0641937181353569,0.527019739151001,0.044116124510765,0.5554864406585693,3.0160114613913747,-6.371697315218743,304.01180555432825,-0.0232021045867422,-0.0604882423273019,0.04,-0.056,0.002,0.48
2025-07-30 17:15:19.717970,1753866919.71797,-0.7281773090362549,-0.4478360116481781,9.869915008544922,0.065879538655281,0.0519528202712535,-0.0625348463654518,0.5273209810256958,0.0435501001775264,0.5551015734672546,3.047812077412575,-6.314019727731924,303.96909296284014,-0.023647663115432,-0.0616498202416511,0.04,-0.056,0.002,0.48
2025-07-30 17:15:19.727801,1753866919.727801,-0.7308923602104187,-0.4047749638557434,9.85055446624756,0.0695717260241508,0.0470936447381973,-0.0571232102811336,0.5282188653945923,0.0441544130444526,0.555468738079071,3.0765396417475483,-6.2619158123829575,303.93050790149834,-0.0240501651075128,-0.0626991491050388,0.04,-0.056,0.002,0.48
2025-07-30 17:15:19.737348,1753866919.737348,-0.7371915578842163,-0.3963504433631897,9.796765327453612,0.0671874955296516,0.0385629534721374,-0.0510429963469505,0.5291182398796082,0.0441831275820732,0.5554554462432861,3.104436764547726,-6.211318090003457,303.89303823710367,-0.0244410317807005,-0.0637181445137118,0.04,-0.056,0.002,0.48
2025-07-30 17:15:19.747728,1753866919.747728,-0.7117693424224854,-0.407574713230133,9.772587776184082,0.0644111409783363,0.0355482958257198,-0.0469664856791496,0.5287927389144897,0.0450842827558517,0.5555649399757385,3.134768084262816,-6.1563054026614425,303.85229911219426,-0.0248660039943351,-0.0648260535891406,0.04,-0.056,0.002,0.48
2025-07-30 17:15:19.756760,1753866919.75676,-0.7087593674659729,-0.4484420120716095,9.773636817932127,0.0663174018263816,0.0338506773114204,-0.0405763015151023,0.5272707939147949,0.0447959452867507,0.5549312829971313,3.161159683441608,-6.108438286831453,303.81685157263433,-0.0252357767714421,-0.0657900568873788,0.04,-0.056,0.002,0.48
2025-07-30 17:15:19.767652,1753866919.767652,-0.7178095579147339,-0.4774344563484192,9.803914070129396,0.0655990317463874,0.0296091549098491,-0.0326780416071414,0.5281787514686584,0.0445210933685302,0.5548830032348633,3.1911442271155974,-6.086286392132907,303.8050693076377,-0.0254303037004405,-0.0666625004002983,0.04,-0.056,0.002,0.48
2025-07-30 17:15:19.777374,1753866919.777374,-0.7139042615890503,-0.4743800163269043,9.807320594787598,0.0655628964304924,0.0293443575501441,-0.029086522758007,0.5293377637863159,0.0449260547757148,0.554279625415802,3.216767596866319,-6.088514511558686,303.8137032688935,-0.0254484544375268,-0.0672617964553131,0.04,-0.056,0.002,0.48
2025-07-30 17:15:19.787190,1753866919.78719,-0.7329021692276001,-0.4644258022308349,9.823664665222168,0.0595047026872634,0.0226498134434223,-0.0196391623467206,0.5301826000213623,0.0447773933410644,0.5529898405075073,3.242638547549472,-6.090764159764264,303.8224206541564,-0.025466780552655,-0.0678668830943747,0.04,-0.056,0.002,0.48
2025-07-30 17:15:19.797769,1753866919.797769,-0.7344193458557129,-0.4323627948760986,9.80016040802002,0.0540816113352775,0.0159177910536527,-0.0130296191200613,0.5301108956336975,0.0452071689069271,0.5517834424972534,3.270520936214136,-6.093188715645292,303.8318158065424,-0.0254865315030925,-0.0685190145545881,0.04,-0.056,0.002,0.48
2025-07-30 17:15:19.807524,1753866919.807524,-0.7205444574356079,-0.4270913600921631,9.788989067077637,0.0560506805777549,0.0130464741960167,-0.0066850204020738,0.5301008224487305,0.046086348593235,0.5521988272666931,3.296231022129008,-6.095424375608159,303.8404789873743,-0.0255047436670057,-0.0691203387837107,0.04,-0.056,0.002,0.48
2025-07-30 17:15:19.817457,1753866919.817457,-0.7421557307243347,-0.4539226293563843,9.76003074645996,0.0636488050222396,0.0111604845151305,-0.0045985081233084,0.5297938585281372,0.0458047501742839,0.5518578886985779,3.3224105064107,-6.097700852826121,303.8493003350419,-0.0255232883370032,-0.0697326416074601,0.04,-0.056,0.002,0.48
2025-07-30 17:15:19.827096,1753866919.827096,-0.7323168516159058,-0.4652990400791168,9.747386932373049,0.0646847635507583,0.0081603601574897,0.0001266810431843,0.5295599699020386,0.0445177741348743,0.55234295129776,3.34781520061704,-6.099909956984467,303.8578606121493,-0.0255412841716566,-0.070326823136464,0.04,-0.056,0.002,0.48
2025-07-30 17:15:19.836723,1753866919.836723,-0.7435493469238281,-0.4651948809623718,9.759598731994627,0.062045432627201,0.0042893937788903,0.0036367888096719,0.5305153131484985,0.0441482625901699,0.5532257556915283,3.3731884759233246,-6.102116329064159,303.8664103024539,-0.0255592577502134,-0.0709202698197768,0.035,-0.057,0.012,0.47
2025-07-30 17:15:19.847968,1753866919.847968,-0.7438027858734131,-0.4465016424655914,9.787854194641112,0.0501550771296024,0.0023617809638381,0.0076338755898177,0.5319339036941528,0.0449294820427894,0.5520322322845459,3.402825924345052,-6.10469349885882,303.8763968336512,-0.0255802519262115,-0.0716134497603015,0.035,-0.057,0.012,0.47
2025-07-30 17:15:19.857045,1753866919.857045,-0.7466161847114563,-0.4628925621509552,9.796907424926758,0.0465743392705917,0.0030183771159499,0.0126550002023577,0.5312870144844055,0.0450049825012683,0.5511099696159363,3.426748903224805,-6.106773758187827,303.8844578371328,-0.0255971981633455,-0.0721729759665077,0.035,-0.057,0.012,0.47
2025-07-30 17:15:19.867459,1753866919.867459,-0.7638511061668396,-0.4849111139774322,9.79505443572998,0.0472830757498741,-0.0014513651840388,0.0163348224014043,0.5309786200523376,0.045298982411623,0.5511494278907776,3.45419645431271,-6.109160502100279,303.8937064681664,-0.025616641089405,-0.0728149371623546,0.035,-0.057,0.012,0.47
2025-07-30 17:15:19.877808,1753866919.877808,-0.7626734972000122,-0.5154010653495789,9.784648895263672,0.0516010746359825,-0.0077089020051062,0.0183855835348367,0.5316112041473389,0.0446794256567955,0.5513808727264404,3.481472458206316,-6.111532328863278,303.902897295256,-0.0256359624971767,-0.0734528861007274,0.035,-0.057,0.012,0.47
2025-07-30 17:15:19.887661,1753866919.887661,-0.7322023510932922,-0.5705536007881165,9.797381401062012,0.0527778752148151,-0.0158399194478988,0.0250666234642267,0.5325263142585754,0.0446765981614589,0.5516780018806458,3.507440807479639,-6.113790446512684,303.9116474996079,-0.0256543576062045,-0.0740602507614318,0.035,-0.057,0.012,0.47
2025-07-30 17:15:19.897809,1753866919.897809,-0.7500317692756653,-0.5280680656433105,9.808850288391112,0.0528755448758602,-0.0253034196794033,0.0272643566131591,0.5321877598762512,0.0444580987095832,0.5507163405418396,3.53418708871832,-6.116116210429571,303.9206598332002,-0.0256733037761862,-0.0746858102014507,0.035,-0.057,0.012,0.47
2025-07-30 17:15:19.907765,1753866919.907765,-0.7430671453475952,-0.4719152450561523,9.76352882385254,0.0428182668983936,-0.0271327290683984,0.0364227443933486,0.5330483913421631,0.0442778877913951,0.5497369766235352,3.560426897288117,-6.11839793323855,303.9295015075294,-0.0256918911778894,-0.0752995239289273,0.035,-0.057,0.012,0.47
2025-07-30 17:15:19.917075,1753866919.917075,-0.730970561504364,-0.4859176576137543,9.758333206176758,0.0300753638148307,-0.0350364036858081,0.0382825993001461,0.5321404337882996,0.0445527471601963,0.5497852563858032,3.584964429852943,-6.120531632026035,303.9377695888762,-0.0257092727442744,-0.0758734237168537,0.035,-0.057,0.012,0.47
2025-07-30 17:15:19.927830,1753866919.92783,-0.7203277349472046,-0.5161291360855103,9.76011562347412,0.0310007501393556,-0.0387896969914436,0.0449630431830883,0.5318865776062012,0.0450241304934024,0.5511011481285095,3.613310561482417,-6.122996513388003,303.94732100247336,-0.025729352194699,-0.0765364014994694,0.035,-0.057,0.012,0.47
2025-07-30 17:15:19.937780,1753866919.93778,-0.7339292764663696,-0.5289146304130554,9.7705078125,0.0398395843803882,-0.0452725738286972,0.0475990623235702,0.5333940982818604,0.0447684116661548,0.5510439872741699,3.639534660602186,-6.125276870157655,303.9561573834011,-0.0257479284683538,-0.0771497478041003,0.035,-0.057,0.012,0.47
2025-07-30 17:15:19.947741,1753866919.947741,-0.724684476852417,-0.5698078274726868,9.791848182678224,0.046701829880476,-0.0507222227752208,0.0487764850258827,0.5327701568603516,0.0450843945145607,0.5507775545120239,3.6657882934880073,-6.1275597950812415,303.9650037159236,-0.0257665256627395,-0.0777637848636809,0.035,-0.057,0.012,0.47
2025-07-30 17:15:19.957010,1753866919.95701,-0.7459614872932434,-0.5863521099090576,9.7819242477417,0.0474299006164073,-0.0552665814757347,0.0498475208878517,0.5321633815765381,0.0447932220995426,0.5504410266876221,3.690217745036645,-6.129684095518156,303.97323537866833,-0.025783830668152,-0.0783351567824295,0.035,-0.057,0.012,0.47
2025-07-30 17:15:19.967571,1753866919.967571,-0.7315436601638794,-0.5457237958908081,9.745970726013184,0.037717305123806,-0.05847192928195,0.0507352575659751,0.5327386260032654,0.045147493481636,0.550156831741333,3.710043880152349,-6.153581775479334,303.98807475788,-0.0257030040232424,-0.0783032121760624,0.035,-0.057,0.012,0.47
2025-07-30 17:15:19.977208,1753866919.977208,-0.7177842259407043,-0.5495893359184265,9.669082641601562,0.0245983581990003,-0.056839719414711,0.0534403398633003,0.5330470204353333,0.0448534861207008,0.5501173734664917,3.7232955367328793,-6.188367374123687,304.0049154051257,-0.0255684898841849,-0.0778613410310232,0.035,-0.057,0.012,0.47
2025-07-30 17:15:19.987558,1753866919.987558,-0.7148963212966919,-0.5868465900421143,9.602113723754885,0.0260601509362459,-0.0545747987926006,0.055069699883461,0.5333210229873657,0.0457737892866134,0.5502180457115173,3.737527789672449,-6.225727038219431,304.02300222693634,-0.02542402196507,-0.0773867722958104,0.035,-0.057,0.012,0.47
2025-07-30 17:15:19.997328,1753866919.997328,-0.6902004480361938,-0.6054097414016724,9.598539352416992,0.027798568829894,-0.0574736297130584,0.0578080415725708,0.532998263835907,0.0455237403512001,0.5495666861534119,3.7509627138439856,-6.260993714291844,304.0400757767503,-0.0252876475240894,-0.0769387901668504,0.035,-0.057,0.012,0.47
2025-07-30 17:15:20.007845,1753866920.007845,-0.7018169164657593,-0.5929192900657654,9.661612510681152,0.0336124412715435,-0.0578879788517952,0.0569225586950778,0.5338989496231079,0.044976856559515,0.5491729974746704,3.765424461083564,-6.298955800927198,304.0584542475731,-0.0251408500676826,-0.0764565690367459,0.035,-0.057,0.012,0.47
2025-07-30 17:15:20.017561,1753866920.017561,-0.6802451014518738,-0.582389771938324,9.732773780822754,0.0375313721597194,-0.0535187795758247,0.0595074966549873,0.53360915184021,0.0440881066024303,0.5487620234489441,3.778784963532099,-6.334027119976051,304.0754332197789,-0.0250052310623666,-0.0760110684701294,0.035,-0.057,0.012,0.47
2025-07-30 17:15:20.026930,1753866920.02693,-0.6640797257423401,-0.6387279033660889,9.7340669631958,0.0328943468630313,-0.055373441427946,0.0630687326192855,0.5327585339546204,0.0433891341090202,0.5493260025978088,3.7916684456856142,-6.367846260746143,304.0918059786808,-0.0248744541667075,-0.0755814739528952,0.035,-0.057,0.012,0.47
2025-07-30 17:15:20.037849,1753866920.037849,-0.6561165452003479,-0.6791964769363403,9.64434814453125,0.0319142527878284,-0.058819755911827,0.0632624626159668,0.5324916839599609,0.0427408553659915,0.5495707392692566,3.806682946339215,-6.407259325098329,304.1108869069815,-0.0247220458533375,-0.0750808214830941,0.023,-0.049,0.022,0.47
2025-07-30 17:15:20.047207,1753866920.047207,-0.6492000818252563,-0.6718835234642029,9.584114074707031,0.0303016696125268,-0.0602046176791191,0.0604315586388111,0.5333811044692993,0.0436487570405006,0.5499728918075562,3.8195513474387295,-6.4410388781015335,304.12724050037684,-0.0245914220415576,-0.0746517298375242,0.023,-0.049,0.022,0.47
2025-07-30 17:15:20.057593,1753866920.057593,-0.6384676098823547,-0.6042030453681946,9.574426651000977,0.0255962461233139,-0.0578269623219966,0.0531532131135463,0.533363938331604,0.0442559123039245,0.5500429272651672,3.833833105577301,-6.478528493345108,304.1453902350458,-0.0244464516079697,-0.0741755103714134,0.023,-0.049,0.022,0.47
2025-07-30 17:15:20.067739,1753866920.067739,-0.6546308398246765,-0.5778360366821289,9.594669342041016,0.0225121695548295,-0.0451081059873104,0.052761510014534,0.533363938331604,0.0442559123039245,0.5500429272651672,3.8477847197728585,-6.515151480735272,304.16312041177866,-0.0243048323801718,-0.0737102994219541,0.023,-0.049,0.022,0.47
2025-07-30 17:15:20.077717,1753866920.077717,-0.63532954454422,-0.632709264755249,9.63082504272461,0.0284954719245433,-0.0390115119516849,0.045676726847887,0.532434344291687,0.0437146835029125,0.5490550994873047,3.8615055282724073,-6.5511686031713126,304.1805572729336,-0.0241655560013076,-0.0732527845953574,0.023,-0.049,0.022,0.47
2025-07-30 17:15:20.087704,1753866920.087704,-0.6164565086364746,-0.6514909863471985,9.67060375213623,0.0391938164830207,-0.036446925252676,0.0429770275950431,0.532434344291687,0.0437146835029125,0.5490550994873047,3.875238467184957,-6.587217567941591,304.198009549822,-0.0240261564897579,-0.0727948652850307,0.023,-0.049,0.022,0.47
2025-07-30 17:15:20.097815,1753866920.097815,-0.6415708065032959,-0.6573137044906616,9.700396537780762,0.0410421825945377,-0.0374601706862449,0.0417898967862129,0.532702624797821,0.0437873601913452,0.5484299063682556,3.8891422154265127,-6.623714907202063,304.21567889690374,-0.0238850231368809,-0.072331250406506,0.023,-0.049,0.022,0.47
2025-07-30 17:15:20.107782,1753866920.107782,-0.6239900588989258,-0.6665587425231934,9.639723777770996,0.0318253636360168,-0.0365638509392738,0.0383385308086872,0.5345328450202942,0.0437816940248012,0.5490241050720215,3.902847615023061,-6.659691581267588,304.23309617591065,-0.0237459031698062,-0.0718742493835664,0.023,-0.049,0.022,0.47
2025-07-30 17:15:20.117567,1753866920.117567,-0.608378529548645,-0.6871531009674072,9.592153549194336,0.0276431422680616,-0.0384638458490371,0.0339409261941909,0.5351970195770264,0.0430990308523178,0.5498762726783752,3.916303193681599,-6.695012475368565,304.2501959741357,-0.0236093190704693,-0.0714255785390661,0.023,-0.049,0.022,0.47
2025-07-30 17:15:20.127770,1753866920.12777,-0.6139547824859619,-0.7260675430297852,9.635224342346191,0.0339527614414691,-0.0354269668459892,0.032828401774168,0.5334054231643677,0.0433136336505413,0.5502482056617737,3.93033316378816,-6.731841147025825,304.2680257281742,-0.0234669044720817,-0.0709577548433509,0.023,-0.049,0.022,0.47
2025-07-30 17:15:20.137585,1753866920.137585,-0.6357707381248474,-0.6963954567909241,9.687636375427246,0.0311591569334268,-0.0323308408260345,0.0287727527320384,0.5340523719787598,0.0432381331920623,0.5511704087257385,3.943829723571701,-6.767269616580304,304.2851776065801,-0.0233299043839427,-0.0705077174997628,0.023,-0.049,0.022,0.47
2025-07-30 17:15:20.150334,1753866920.150334,-0.6592891216278076,-0.6883947849273682,9.763971328735352,0.0256328359246253,-0.0247991904616355,0.0226730909198522,0.5343278050422668,0.0435828231275081,0.5508906245231628,3.961360793149401,-6.813288674381131,304.30745667462,-0.0231519510302114,-0.0699231510539765,0.023,-0.049,0.022,0.47
2025-07-30 17:15:20.157522,1753866920.157522,-0.6951099038124084,-0.6581426858901978,9.806222915649414,0.0207207538187503,-0.0317448265850544,0.0185984019190073,0.5333954691886902,0.0441928133368492,0.5506636500358582,3.971245112650797,-6.839235013162145,304.3200179975742,-0.0230516178590475,-0.0695935624059857,0.023,-0.049,0.022,0.47
2025-07-30 17:15:20.167467,1753866920.167467,-0.6727032661437988,-0.6255310773849487,9.761018753051758,0.0227489061653614,-0.0325724817812442,0.0164015814661979,0.534294843673706,0.0442215278744697,0.5506503582000732,3.985278743868055,-6.860452676541394,304.3230747320207,-0.0229883643938204,-0.0690388705266251,0.023,-0.049,0.022,0.47
2025-07-30 17:15:20.178128,1753866920.178128,-0.6672795414924622,-0.6100195646286011,9.730634689331056,0.0196432936936616,-0.03715131431818,0.007609462365508,0.5345328450202942,0.0437816940248012,0.5490241050720215,4.000549335793893,-6.873890797329522,304.31727190719545,-0.0229684607840811,-0.0683816987835587,0.023,-0.049,0.022,0.47
2025-07-30 17:15:20.187590,1753866920.18759,-0.6657544374465942,-0.6610593199729919,9.671345710754396,0.0220629796385765,-0.0364225581288337,0.007631663698703,0.5342344641685486,0.0431965179741382,0.5486481189727783,4.014102477047807,-6.885817561538348,304.3121217136136,-0.0229507956905752,-0.067798437734798,0.023,-0.049,0.022,0.47
2025-07-30 17:15:20.207234,1753866920.207234,-0.6202294230461121,-0.63619065284729,9.635191917419434,0.0250118412077426,-0.0394486747682094,0.0011184088652953,0.533383846282959,0.0424975529313087,0.5492120981216431,4.042240459392557,-6.910578985805288,304.3014292805191,-0.0229141207913859,-0.0665875163118646,0.023,-0.049,0.022,0.47
2025-07-30 17:15:20.208360,1753866920.20836,-0.6544955372810364,-0.6080437302589417,9.726853370666504,0.0288646575063467,-0.0442564412951469,0.0007161624380387,0.5345743894577026,0.042839415371418,0.5492293834686279,4.043853408194206,-6.91199838073948,304.3008163599857,-0.0229120184823442,-0.0665181028679978,0.023,-0.049,0.022,0.47
2025-07-30 17:15:20.222577,1753866920.222577,-0.6555795669555664,-0.6393380761146545,9.72900676727295,0.0271892230957746,-0.0466427579522132,-0.0003021984593942,0.5348584055900574,0.0428805388510227,0.5489146113395691,4.064217954031836,-6.929919180934422,304.2930778327095,-0.0228854754396882,-0.0656417122113772,0.023,-0.049,0.022,0.47
2025-07-30 17:15:20.227912,1753866920.227912,-0.6442847847938538,-0.687497615814209,9.68597412109375,0.0296068992465734,-0.050295639783144,-0.0006562339840456,0.5342732667922974,0.0434054471552372,0.5496141910552979,4.071859567918285,-6.936643801101148,304.290174019486,-0.02287551540007,-0.0653128544472521,0.023,-0.049,0.022,0.47
2025-07-30 17:15:20.305213,1753866920.305213,-0.6583970785140991,-0.7647085785865784,9.639740943908691,0.0326012447476387,-0.045034859329462,-0.0004211098130326,0.5348412394523621,0.0434876941144466,0.5489846467971802,4.182585105133152,-7.03408227307722,304.2480983161174,-0.0227311963133181,-0.0605477677599222,0.008,-0.036,0.027,0.47
2025-07-30 17:15:20.307938,1753866920.307938,-0.670653760433197,-0.7207373976707458,9.581533432006836,0.0229530818760395,-0.0370147228240966,-0.0108874356374144,0.5346890687942505,0.0408917590975761,0.5502607226371765,4.186488557346331,-7.037517310997567,304.24661500430364,-0.0227261085740959,-0.0603797822288196,0.008,-0.036,0.027,0.47
2025-07-30 17:15:20.321157,1753866920.321157,-0.6717895865440369,-0.732126772403717,9.607200622558594,0.0294768512248992,-0.0306664016097784,-0.0164915900677442,0.5346575379371643,0.0409548580646514,0.5496399998664856,4.205423203409981,-7.054179799401391,304.23941983893167,-0.0227014292553351,-0.0595649274793492,0.008,-0.036,0.027,0.47
2025-07-30 17:15:20.330958,1753866920.330958,-0.7016890048980713,-0.7031607627868652,9.592899322509766,0.0322837941348552,-0.0283556096255779,-0.0185027625411748,0.5349099636077881,0.0410590805113315,0.5487045049667358,4.219461971002228,-7.066533914784559,304.2340851073446,-0.0226831311989969,-0.0589607674432545,0.008,-0.036,0.027,0.47
2025-07-30 17:15:20.338443,1753866920.338443,-0.6768146753311157,-0.695757269859314,9.559435844421388,0.0202413629740476,-0.0244333706796169,-0.0240430124104022,0.5357778072357178,0.0411508977413177,0.54807049036026,4.230183657986722,-7.075968999256062,304.2300108663653,-0.0226691566081937,-0.0584993583663548,0.008,-0.036,0.027,0.47
2025-07-30 17:15:20.347820,1753866920.34782,-0.6850914359092712,-0.7263728976249695,9.542691230773926,0.0148547971621155,-0.0158712435513734,-0.0281606577336788,0.5364246964454651,0.0410753935575485,0.5489926934242249,4.243615221901364,-7.087788775407176,304.2249068721716,-0.0226516499779567,-0.0579213294128761,0.008,-0.036,0.027,0.47
2025-07-30 17:15:20.362606,1753866920.362606,-0.6624147295951843,-0.7465706467628479,9.559775352478027,0.0147626893594861,-0.0165967233479022,-0.0322072356939315,0.5359140038490295,0.0400193184614181,0.5501379370689392,4.261652606724499,-7.106386863815113,304.212443992917,-0.0226608577816533,-0.0570730009261707,0.008,-0.036,0.027,0.47
2025-07-30 17:15:20.368158,1753866920.368158,-0.645803689956665,-0.7468295097351074,9.639683723449709,0.0133978882804512,-0.0125700756907463,-0.0351673178374767,0.5353058576583862,0.0403037443757057,0.5501818060874939,4.257040023999685,-7.113226210585258,304.19176689769483,-0.0227977122518012,-0.0569832159457282,0.008,-0.036,0.027,0.47
2025-07-30 17:15:20.377697,1753866920.377697,-0.6774488687515259,-0.7677174806594849,9.667346954345703,0.0119735887274146,-0.0188711620867252,-0.0361833497881889,0.5352671146392822,0.0400948263704776,0.5492157340049744,4.249115223800558,-7.124976776348418,304.15624193085733,-0.023032839597365,-0.056828957892629,0.008,-0.036,0.027,0.47
2025-07-30 17:15:20.387628,1753866920.387628,-0.650843620300293,-0.7631586194038391,9.681907653808594,0.0114699602127075,-0.0177441053092479,-0.0368121825158596,0.5367904305458069,0.0398075580596923,0.5494689345359802,4.240864589505914,-7.1372104754235925,304.11925632840166,-0.0232776343798418,-0.056668357404144,0.008,-0.036,0.027,0.47
2025-07-30 17:15:20.398477,1753866920.398477,-0.6757634878158569,-0.7429392337799072,9.726099014282228,0.0122939888387918,-0.0211459938436746,-0.039427001029253,0.537361204624176,0.0387385971844196,0.5480785369873047,4.231851364774951,-7.150574912037524,304.0788522170524,-0.023545055078498,-0.0564929129179477,0.008,-0.036,0.027,0.47
2025-07-30 17:15:20.409522,1753866920.409522,-0.7078642249107361,-0.7161305546760559,9.746005058288574,0.0043421257287263,-0.0209142211824655,-0.0408349186182022,0.5364072918891907,0.0385325066745281,0.5468153357505798,4.222675322033949,-7.164180768458433,304.0377182318562,-0.0238173065571801,-0.0563142991418504,0.008,-0.036,0.027,0.47
2025-07-30 17:15:20.417312,1753866920.417312,-0.7212647795677185,-0.713103175163269,9.66549015045166,-0.0083246221765875,-0.0230801776051521,-0.0446215346455574,0.5364875793457031,0.0377991534769535,0.5479867458343506,4.216203603248023,-7.173776765238651,304.0087070783287,-0.0240093212479148,-0.0561883256516629,0.008,-0.036,0.027,0.47
2025-07-30 17:15:20.429702,1753866920.429702,-0.6992049217224121,-0.7417067289352417,9.631404876708984,-0.0113929817453026,-0.0204415153712034,-0.0478107929229736,0.5365521311759949,0.0370973534882068,0.5488477945327759,4.205910018885799,-7.189039666125448,303.9625634237358,-0.024314729978307,-0.0559879586716468,0.008,-0.036,0.027,0.47
2025-07-30 17:15:20.438026,1753866920.438026,-0.71556156873703,-0.721918523311615,9.66136074066162,-0.0077464450150728,-0.016971992328763,-0.05431704595685,0.5362609028816223,0.0367841981351375,0.5488172173500061,4.198994611118743,-7.199293546564579,303.93156331957925,-0.0245199088384552,-0.0558533486737,-0.006,-0.026,0.025,0.48
2025-07-30 17:15:20.447940,1753866920.44794,-0.7121702432632446,-0.6824499368667603,9.719534873962402,-0.0042621111497282,-0.0139726633206009,-0.0577482506632804,0.537135899066925,0.037148043513298,0.5485286116600037,4.190758040180198,-7.211506393077351,303.89464075975513,-0.0247642863637765,-0.0556930219316663,-0.006,-0.026,0.025,0.48
2025-07-30 17:15:20.458174,1753866920.458174,-0.7352930307388306,-0.683150589466095,9.74260711669922,-0.0037694894708693,-0.011392974294722,-0.0584915317595005,0.5374041199684143,0.0372207202017307,0.5479034185409546,4.182255850079286,-7.224113088691283,303.8565274933268,-0.0250165447601618,-0.0555275248517285,-0.006,-0.026,0.025,0.48
2025-07-30 17:15:20.470009,1753866920.470009,-0.7277796268463135,-0.6869027614593506,9.730395317077637,-0.008554452098906,-0.0133427334949374,-0.0640982687473297,0.536615252494812,0.0369711555540561,0.5500891804695129,4.172423385336736,-7.238692260489712,303.81245092670895,-0.0253082721573422,-0.055336133670848,-0.006,-0.026,0.025,0.48
2025-07-30 17:15:20.477296,1753866920.477296,-0.7305355668067932,-0.6990179419517517,9.725213050842283,-0.0076013165526092,-0.013227429240942,-0.0661191642284393,0.5354117155075073,0.0355096310377121,0.5490007996559143,4.166369407649563,-7.247668848057138,303.7853124057157,-0.0254878925474997,-0.0552182916069393,-0.006,-0.026,0.025,0.48
2025-07-30 17:15:20.487734,1753866920.487734,-0.7506877183914185,-0.6908747553825378,9.68467903137207,-0.0114483879879117,-0.0150605253875255,-0.0694779083132743,0.5359869003295898,0.0358638949692249,0.5487166047096252,4.15769766497372,-7.260526949212157,303.74643907601126,-0.0257451815371966,-0.0550494941472506,-0.006,-0.026,0.025,0.48
2025-07-30 17:15:20.499053,1753866920.499053,-0.756544828414917,-0.7128967642784119,9.640177726745604,-0.011124350130558,-0.0152555955573916,-0.0678100362420082,0.5354504585266113,0.0357185490429401,0.5499668121337891,4.148294033554451,-7.274470264706323,303.7042848656933,-0.0260241855295644,-0.0548664503053428,-0.006,-0.026,0.025,0.48
2025-07-30 17:15:20.510396,1753866920.510396,-0.7519564628601074,-0.7283813953399658,9.671565055847168,-0.0083397654816508,-0.0131874931976199,-0.0729579180479049,0.5351434350013733,0.0354369580745697,0.5496259331703186,4.138870396515943,-7.288443243704749,303.66204097501225,-0.026303783084928,-0.0546830170494692,-0.006,-0.026,0.025,0.48
2025-07-30 17:15:20.517735,1753866920.517735,-0.7494003772735596,-0.7181106805801392,9.73090934753418,-0.0136120039969682,-0.0147327343001961,-0.0728746876120567,0.5357128977775574,0.0349435918033123,0.5486159324645996,4.132773238383284,-7.297483857449697,303.6347088865024,-0.0264846846308588,-0.0545643344682874,-0.006,-0.026,0.025,0.48
2025-07-30 17:15:20.528530,1753866920.52853,-0.7547969222068787,-0.7452015280723572,9.736165046691896,-0.0166443567723035,-0.0143009182065725,-0.0737316086888313,0.5363597869873047,0.0348680913448333,0.5495381951332092,4.123804976776749,-7.310781624603552,303.5945063339892,-0.0267507712819896,-0.0543897651996185,-0.006,-0.026,0.025,0.48
2025-07-30 17:15:20.539342,1753866920.539342,-0.7172139883041382,-0.7596102356910706,9.693021774291992,-0.0253144707530736,-0.0167114175856113,-0.0668950229883194,0.5366767644882202,0.0342705175280571,0.54946368932724,4.114822453738677,-7.324100538017872,303.55423985092,-0.0270172810671373,-0.0542149183289144,-0.006,-0.026,0.025,0.48
2025-07-30 17:15:20.547804,1753866920.547804,-0.7379537224769592,-0.7717455625534058,9.691282272338867,-0.0242516733705997,-0.0127168651670217,-0.066303052008152,0.535811722278595,0.0330274850130081,0.5493369102478027,4.107792162217579,-7.334524763332972,303.5227247506185,-0.0272258685068658,-0.0540780720923514,-0.006,-0.026,0.025,0.48
2025-07-30 17:15:20.559211,1753866920.559211,-0.7481129765510559,-0.738693118095398,9.676974296569824,-0.0242568869143724,-0.0109946336597204,-0.0647283643484115,0.5349439382553101,0.0329356715083122,0.5499708652496338,4.098315440961686,-7.3485764534120195,303.4802428962014,-0.02750704106107,-0.0538936055400137,-0.006,-0.026,0.025,0.48
2025-07-30 17:15:20.567912,1753866920.567912,-0.7714528441429138,-0.6981436014175415,9.63358211517334,-0.0212014932185411,-0.0103622078895568,-0.0649278089404106,0.5352252125740051,0.0341280065476894,0.550416886806488,4.080347109369133,-7.35392518011133,303.4470709840351,-0.0277152680535677,-0.0535465661643483,-0.006,-0.026,0.025,0.48
2025-07-30 17:15:20.590492,1753866920.590492,-0.7808201313018799,-0.7873891592025757,9.637432098388672,-0.0183512233197689,-0.0026050792075693,-0.0672145709395408,0.5365159511566162,0.0319781564176082,0.5507747530937195,4.025363450324416,-7.363628178766279,303.36039086407243,-0.0282507698947833,-0.052485465513961,-0.006,-0.026,0.025,0.48
2025-07-30 17:15:20.590492,1753866920.590492,-0.7939865589141846,-0.7238231301307678,9.645326614379885,-0.0195879638195037,-0.0056860907934606,-0.0635817572474479,0.5355507731437683,0.0332268439233303,0.5503073930740356,4.025363450324416,-7.363628178766279,303.36039086407243,-0.0282507698947833,-0.052485465513961,-0.006,-0.026,0.025,0.48
2025-07-30 17:15:20.597239,1753866920.597239,-0.7742792367935181,-0.7728695869445801,9.654786109924316,-0.0138614224269986,0.0014194708783179,-0.0697691142559051,0.5365073680877686,0.0322817377746105,0.5508097410202026,4.0089340146194905,-7.366527490949502,303.3344903423071,-0.0284107809457569,-0.0521684024953319,-0.006,-0.026,0.025,0.48
2025-07-30 17:15:20.607329,1753866920.607329,-0.7732544541358948,-0.7052043676376343,9.651589393615724,-0.0226886328309774,0.0087129641324281,-0.0662289187312126,0.5362247824668884,0.0316650085151195,0.5507441759109497,3.984364463786158,-7.370863294037737,303.2957571686576,-0.0286500709445981,-0.0516942476860317,-0.006,-0.026,0.025,0.48
2025-07-30 17:15:20.618409,1753866920.618409,-0.7504170536994934,-0.6674272418022156,9.656895637512209,-0.0343394987285137,0.0081768706440925,-0.0678423643112182,0.5356122851371765,0.0305262058973312,0.5496818423271179,3.957383822579224,-7.375624583662491,303.253222982008,-0.0289128432535807,-0.0511735625146563,-0.006,-0.026,0.025,0.48
2025-07-30 17:15:20.631105,1753866920.631105,-0.7556443214416504,-0.7643499374389648,9.705048561096191,-0.0324474833905696,0.0162922423332929,-0.0606089532375335,0.5350441932678223,0.0304439589381217,0.5503113865852356,3.926468105390524,-7.381080298460496,303.2044852639075,-0.0292139404116215,-0.0505769363863472,-0.006,-0.026,0.025,0.48
2025-07-30 17:15:20.637751,1753866920.637751,-0.7375024557113647,-0.7926295399665833,9.753527641296388,-0.0210676416754722,0.0143578881397843,-0.0623944215476512,0.5353611707687378,0.0298463851213455,0.5502369403839111,3.910284249080742,-7.383936273103399,303.17897189082964,-0.0293715596934668,-0.0502646126750038,-0.006,-0.026,0.025,0.48
2025-07-30 17:15:20.648596,1753866920.648596,-0.7684063911437988,-0.7372984886169434,9.809165000915527,-0.0167543478310108,0.0143771590664982,-0.0591151341795921,0.5362849235534668,0.0295399688184261,0.5504990220069885,3.8838760458965313,-7.388596544253553,303.1373401358724,-0.0296287568621172,-0.0497549746832591,-0.022,-0.017,0.02,0.48
2025-07-30 17:15:20.656966,1753866920.656966,-0.7827803492546082,-0.7195732593536377,9.843867301940918,-0.0273730996996164,0.0091004930436611,-0.0522527247667312,0.5368515253067017,0.0301978215575218,0.5502498149871826,3.863494697797407,-7.392193252741634,303.10520954054766,-0.0298272567368648,-0.0493616457906483,-0.022,-0.017,0.02,0.48
2025-07-30 17:15:20.673093,1753866920.673093,-0.7850357294082642,-0.7304865121841431,9.785578727722168,-0.0368974171578884,0.0096427695825696,-0.0552000254392623,0.5370768308639526,0.0317883789539337,0.5497997999191284,3.824224056080293,-7.399123365985831,303.0433005298671,-0.0302097249339728,-0.0486037823782976,-0.022,-0.017,0.02,0.48
2025-07-30 17:15:20.679789,1753866920.679789,-0.7920315265655518,-0.7552099823951721,9.732939720153809,-0.0394865535199642,0.0075110057368874,-0.0511273816227912,0.5368329286575317,0.0313805826008319,0.5507002472877502,3.8079188614878032,-7.402000753266858,303.01759587055835,-0.0303685259646309,-0.0482891170234017,-0.022,-0.017,0.02,0.48
2025-07-30 17:15:20.687680,1753866920.68768,-0.7872147560119629,-0.717973530292511,9.703031539916992,-0.0386319570243358,0.0068976487964391,-0.0537430010735988,0.536045491695404,0.0305554047226905,0.5525056719779968,3.788703870374127,-7.405391634051625,302.9873040026879,-0.0305556663495942,-0.0479182970393892,-0.022,-0.017,0.02,0.48
2025-07-30 17:15:20.698246,1753866920.698246,-0.8093944787979126,-0.6313988566398621,9.740238189697266,-0.0336702577769756,0.0141374133527278,-0.0530701428651809,0.5348879098892212,0.0295748375356197,0.5527287125587463,3.7629749293466976,-7.4099320354094065,302.9467430845257,-0.0308062479866131,-0.0474217677699243,-0.022,-0.017,0.02,0.48
2025-07-30 17:15:20.707888,1753866920.707888,-0.7681039571762085,-0.6599228978157043,9.80093765258789,-0.0316156819462776,0.0194021053612232,-0.0512352548539638,0.5351632833480835,0.0299195349216461,0.5524489283561707,3.739496261925837,-7.414075329660147,302.90972965646426,-0.0310349135547401,-0.0469686653445248,-0.022,-0.017,0.02,0.48
2025-07-30 17:15:20.721076,1753866920.721076,-0.7774150967597961,-0.7105273008346558,9.838177680969238,-0.0267014522105455,0.0174906626343727,-0.0476287230849266,0.5354472994804382,0.0299606584012508,0.5521341562271118,3.7073822566246615,-7.419742507066236,302.8591028724278,-0.0313476811890949,-0.0463489140856297,-0.022,-0.017,0.02,0.48
2025-07-30 17:15:20.727929,1753866920.727929,-0.7658657431602478,-0.7034282088279724,9.825692176818848,-0.0299351047724485,0.0169430747628211,-0.0501219294965267,0.5351245403289795,0.0297106094658374,0.5514827966690063,3.690694469073781,-7.422687410751686,302.8327950665823,-0.0315102084038087,-0.0460268652709198,-0.022,-0.017,0.02,0.48
2025-07-30 17:15:20.738747,1753866920.738747,-0.7724645137786865,-0.7024248838424683,9.779294967651367,-0.0286688134074211,0.0133147137239575,-0.0438230745494365,0.5351402759552002,0.0296790599822998,0.5517931580543518,3.6643524504074096,-7.427336002281046,302.7912676495691,-0.0317667609821976,-0.0455185045392946,-0.022,-0.017,0.02,0.48
2025-07-30 17:15:20.746967,1753866920.746967,-0.7813122272491455,-0.6946960687637329,9.72994327545166,-0.0334009677171707,0.0159818343818187,-0.0441080443561077,0.5360726118087769,0.0290690697729587,0.5520201921463013,3.644335697722352,-7.430868370401938,302.75971182818233,-0.0319617099562062,-0.0451322117813776,-0.022,-0.017,0.02,0.48
2025-07-30 17:15:20.759191,1753866920.759191,-0.8076097965240479,-0.6692509651184082,9.725448608398438,-0.0327974110841751,0.0196460019797086,-0.0401893369853496,0.5351516604423523,0.0282242745161056,0.5509973764419556,3.614569501106667,-7.436121228628235,302.7127862954275,-0.0322516115991784,-0.0445577696446189,-0.022,-0.017,0.02,0.48
2025-07-30 17:15:20.767840,1753866920.76784,-0.7924566864967346,-0.697370171546936,9.766231536865234,-0.0302503462880849,0.0261839106678962,-0.0414944551885128,0.5348820686340332,0.0287272073328495,0.5520029067993164,3.595975084754131,-7.426558202229872,302.6998836619539,-0.0327986412273071,-0.0444474121797405,-0.022,-0.017,0.02,0.48
2025-07-30 17:15:20.778241,1753866920.778241,-0.8028275966644287,-0.6821669936180115,9.781583786010742,-0.0310290716588497,0.0251860488206148,-0.0390654988586902,0.5337203741073608,0.0294734500348567,0.5533671379089355,3.574521440241041,-7.410170001321794,302.69183854493645,-0.0335823400766091,-0.0444236764829144,-0.022,-0.017,0.02,0.48
2025-07-30 17:15:20.787720,1753866920.78772,-0.7807778120040894,-0.6768119931221008,9.822887420654297,-0.0305416081100702,0.0266806911677122,-0.0364512130618095,0.5340043306350708,0.0295145735144615,0.5530523061752319,3.55496948611952,-7.39523448059507,302.6845065618446,-0.0342965704227536,-0.0444020447617817,-0.022,-0.017,0.02,0.48
2025-07-30 17:15:20.798542,1753866920.798542,-0.7918215394020081,-0.6602559685707092,9.822332382202148,-0.0281613264232873,0.0257921479642391,-0.0375444218516349,0.5343068838119507,0.028372935950756,0.5522871017456055,3.532647368570095,-7.378182862774588,302.6761357674254,-0.035111994479342,-0.0443773482113029,-0.022,-0.017,0.02,0.48
2025-07-30 17:15:20.811777,1753866920.811777,-0.778709888458252,-0.6758404970169067,9.774104118347168,-0.0302159395068883,0.021463569253683,-0.0330613888800144,0.5334476828575134,0.0279775410890579,0.5528860688209534,3.5053480054936346,-7.357329182343431,302.6658985058582,-0.0361092366689685,-0.0443471449791605,-0.022,-0.017,0.02,0.48
2025-07-30 17:15:20.819174,1753866920.819174,-0.804247260093689,-0.6911651492118835,9.770995140075684,-0.0296975281089544,0.0213562287390232,-0.0282747857272624,0.5346626043319702,0.0279842875897884,0.5531787276268005,3.4900907144674203,-7.345674307084447,302.6601770214922,-0.0366665835297043,-0.044330264750071,-0.022,-0.017,0.02,0.48
2025-07-30 17:15:20.827628,1753866920.827628,-0.7857925891876221,-0.6883126497268677,9.758787155151367,-0.0268045179545879,0.0203822068870067,-0.0192866306751966,0.5352607369422913,0.0285790339112281,0.5535503029823303,3.472653388916816,-7.332354127650668,302.6536380241465,-0.0373035667686396,-0.0443109725933246,-0.022,-0.017,0.02,0.48
2025-07-30 17:15:20.838045,1753866920.838045,-0.8172580003738403,-0.6567131876945496,9.762458801269531,-0.0274000186473131,0.0239565409719944,-0.0192070975899696,0.5343456268310547,0.0285818688571453,0.553253173828125,3.4511667955399474,-7.315940757471282,302.64558055130465,-0.0380884692356586,-0.0442872004428208,-0.032,-0.011,0.011,0.48
2025-07-30 17:15:20.852675,1753866920.852675,-0.793613612651825,-0.6356918811798096,9.764561653137209,-0.026014344766736,0.0219800882041454,-0.0178229082375764,0.5340214967727661,0.0289074182510375,0.5529822707176208,3.42099006228478,-7.292889085899423,302.63426427587683,-0.0391908213844202,-0.0442538137708588,-0.032,-0.011,0.011,0.48
2025-07-30 17:15:20.859010,1753866920.85901,-0.7974764108657837,-0.6215396523475647,9.77114486694336,-0.0255347937345504,0.0298405531793832,-0.0134974280372262,0.5331320762634277,0.0279995240271091,0.5525801181793213,3.407923133038767,-7.282907403691319,302.6293641772116,-0.0396681546136421,-0.0442393568952057,-0.032,-0.011,0.011,0.48
2025-07-30 17:15:20.867715,1753866920.867715,-0.8245658874511719,-0.6274785995483398,9.782002449035645,-0.0288864634931087,0.032479889690876,-0.009134710766375,0.533764660358429,0.027379959821701,0.5528116226196289,3.389967969375331,-7.269191653471151,302.62263099056577,-0.0403240544116219,-0.0442194918172271,-0.032,-0.011,0.011,0.48
2025-07-30 17:15:20.877376,1753866920.877376,-0.78108811378479,-0.6527901887893677,9.76954174041748,-0.0257478933781385,0.0301657989621162,-0.0049942629411816,0.5337159037590027,0.0280502140522003,0.5522609353065491,3.3700402998519063,-7.253969127919355,302.6151581141926,-0.0410520095926286,-0.0441974444153523,-0.032,-0.011,0.011,0.48
2025-07-30 17:15:20.889915,1753866920.889915,-0.7974683046340942,-0.6442417502403259,9.759445190429688,-0.0201822984963655,0.0283929295837879,-0.0018759459489956,0.5331207513809204,0.0294543020427227,0.5533759593963623,3.3441769171073243,-7.234212376924338,302.60545934527147,-0.041996795607127,-0.0441688299106536,-0.032,-0.011,0.011,0.48
2025-07-30 17:15:20.897556,1753866920.897556,-0.7786393165588379,-0.624569833278656,9.799837112426758,-0.0162558704614639,0.0302894841879606,0.0020036201458424,0.5331423282623291,0.0302703790366649,0.5544121265411377,3.32841604941678,-7.222172825041175,302.59954901964875,-0.0425725380580447,-0.0441513925387893,-0.032,-0.011,0.011,0.48
2025-07-30 17:15:20.908087,1753866920.908087,-0.8191549181938171,-0.6175791621208191,9.808755874633787,-0.0187103059142828,0.0265203285962343,0.0071786018088459,0.5322917699813843,0.0295714102685451,0.5549760460853577,3.306694388026679,-7.205579889015736,302.59140339629835,-0.0433660275290744,-0.0441273603157793,-0.032,-0.011,0.011,0.48
2025-07-30 17:15:20.917859,1753866920.917859,-0.7954676747322083,-0.6473836302757263,9.784846305847168,-0.0230241697281599,0.0316738709807395,0.0107508935034275,0.532017707824707,0.0286511071026325,0.5548754334449768,3.2865380435531435,-7.190182681207842,302.58384476681545,-0.0441023361763259,-0.0441050599144999,-0.032,-0.011,0.011,0.48
2025-07-30 17:15:20.930823,1753866920.930823,-0.8129053115844727,-0.6281898021697998,9.753861427307127,-0.0211830809712409,0.0350944586098194,0.0153259448707103,0.5323160886764526,0.0292362868785858,0.5552513599395752,3.2597978276127604,-7.169756127067401,302.57381718543263,-0.0450791527936508,-0.044075475306708,-0.032,-0.011,0.011,0.48
2025-07-30 17:15:20.938103,1753866920.938103,-0.8320240378379822,-0.6073437929153442,9.767922401428224,-0.0157871786504983,0.0375564843416214,0.0172607079148292,0.5316907167434692,0.0301278680562973,0.555365264415741,3.2447819976629,-7.158285701244427,302.568186248974,-0.0456276791126099,-0.0440588622232263,-0.032,-0.011,0.011,0.48
2025-07-30 17:15:20.951117,1753866920.951117,-0.8105530142784119,-0.581678569316864,9.792442321777344,-0.0217952895909547,0.0388842783868312,0.0234574787318706,0.532565712928772,0.0304917134344577,0.5550767183303833,3.217938509164401,-7.137780258343168,302.5581199403804,-0.0466082682630776,-0.0440291633576388,-0.032,-0.011,0.011,0.48
2025-07-30 17:15:20.958540,1753866920.95854,-0.8091822266578674,-0.5900458097457886,9.814400672912598,-0.0219094511121511,0.0389659479260444,0.0289870873093605,0.5322588086128235,0.0302101150155067,0.5547357797622681,3.202627614762785,-7.126084436060713,302.55237835474776,-0.0471675732481589,-0.0440122238233125,-0.032,-0.011,0.011,0.48
2025-07-30 17:15:20.967845,1753866920.967845,-0.8101072311401367,-0.6001009345054626,9.811944007873535,-0.0218919534236192,0.0355296656489372,0.0289095062762498,0.5317208766937256,0.0306403823196887,0.5563663840293884,3.1864724113501643,-7.113511606179188,302.5751786792995,-0.0477699964256556,-0.0434828478953462,-0.032,-0.011,0.011,0.48
2025-07-30 17:15:20.981005,1753866920.981005,-0.7945849299430847,-0.5920708179473877,9.86070442199707,-0.0193301830440759,0.0288246013224124,0.0329563170671463,0.5311199426651001,0.0311968326568603,0.5567556619644165,3.1653600827821533,-7.0969233482536085,302.6245664470797,-0.0485656031125709,-0.0424437906071597,-0.032,-0.011,0.011,0.48
2025-07-30 17:15:20.990130,1753866920.99013,-0.7957660555839539,-0.5741444230079651,9.864900588989258,-0.0204184725880622,0.0287652313709259,0.0417688600718975,0.5310410261154175,0.0313545800745487,0.555203914642334,3.1507210235709016,-7.085421230464856,302.6588113885847,-0.0491172681437919,-0.0417233195744811,-0.032,-0.011,0.011,0.48
2025-07-30 17:15:20.998211,1753866920.998211,-0.8090099096298218,-0.5694524049758911,9.836498260498049,-0.0177690666168928,0.0296068005263805,0.0437116995453834,0.532508373260498,0.0314655415713787,0.5545610189437866,3.137756890294018,-7.075235125891608,302.6891381998452,-0.0496058144967877,-0.0410852811353306,-0.032,-0.011,0.011,0.48
2025-07-30 17:15:21.007211,1753866921.007211,-0.8088331818580627,-0.5840709209442139,9.79203987121582,-0.016855290159583,0.0287364535033702,0.046907465904951,0.5324853658676147,0.0312250703573226,0.5539053082466125,3.1233182561089383,-7.063890484906904,302.72291428995754,-0.0501499266192647,-0.0403746741535788,-0.032,-0.011,0.011,0.48
2025-07-30 17:15:21.024987,1753866921.024987,-0.8281871676445007,-0.5561035871505737,9.808509826660156,-0.0167748853564262,0.02676354162395,0.0492408312857151,0.5310180187225342,0.0311141051352024,0.5545481443405151,3.0948005288162643,-7.041483699494375,302.7896254008903,-0.0512246017531131,-0.0389711552432647,-0.032,-0.011,0.011,0.48
2025-07-30 17:15:21.027987,1753866921.027987,-0.8161362409591675,-0.5572338104248047,9.799344062805176,-0.0224054865539073,0.0243084244430065,0.0534682311117649,0.5313479900360107,0.0316361859440803,0.5555447936058044,3.089987650754571,-7.037702152499473,302.80088409759446,-0.0514059724606054,-0.0387342862493475,-0.032,-0.011,0.011,0.48
2025-07-30 17:15:21.039987,1753866921.039987,-0.8107667565345764,-0.5552685856819153,9.81290054321289,-0.0240980815142393,0.0261167027056217,0.0567968562245368,0.5310094356536865,0.031417679041624,0.5545831918716431,3.0707361385077983,-7.022575964519867,302.84591888441105,-0.0521314552905748,-0.0377868102736785,-0.035,-0.01,0.002,0.49
2025-07-30 17:15:21.048295,1753866921.048295,-0.8103734850883484,-0.5612404346466064,9.825396537780762,-0.0238658022135496,0.0282135419547557,0.0630024299025535,0.5306681394577026,0.0323503874242305,0.55438232421875,3.057407874267334,-7.012103757050715,302.8770975020183,-0.052633723722052,-0.0371308508870425,-0.035,-0.01,0.002,0.49
2025-07-30 17:15:21.058207,1753866921.058207,-0.8032646179199219,-0.5539448261260986,9.836236000061035,-0.0207274090498685,0.0233259312808513,0.0649647563695907,0.5306437611579895,0.0326855182647705,0.5541069507598877,3.041506213889297,-6.999609595502116,302.9142960283457,-0.0532329691955708,-0.0363482400984296,-0.035,-0.01,0.002,0.49
2025-07-30 17:15:21.069734,1753866921.069734,-0.8140890002250671,-0.5491055250167847,9.807502746582031,-0.0228770021349191,0.0213817786425352,0.0695891380310058,0.5307055115699768,0.0331349149346351,0.5557287335395813,3.0230135628103225,-6.985079655574475,302.9575556221033,-0.0539298547527384,-0.035438111979705,-0.035,-0.01,0.002,0.49
2025-07-30 17:15:21.077393,1753866921.077393,-0.8067982196807861,-0.5538333654403687,9.78441047668457,-0.0221905000507831,0.0147408368065953,0.0731374695897102,0.5304359197616577,0.0336378552019596,0.5567343235015869,3.0107264377325325,-6.975425486007265,302.9862987177819,-0.0543928884178011,-0.0348333929492196,-0.035,-0.01,0.002,0.49
2025-07-30 17:15:21.088746,1753866921.088746,-0.7932782173156738,-0.5546189546585083,9.77387523651123,-0.0246294029057025,0.0153824901208281,0.0788011252880096,0.5304273366928101,0.0339414216578006,0.5567693114280701,2.99251300472437,-6.961114931703585,303.0289051407063,-0.0550792517929398,-0.0339370067335039,-0.035,-0.01,0.002,0.49
2025-07-30 17:15:21.097243,1753866921.097243,-0.7939706444740295,-0.5632262825965881,9.75214672088623,-0.0202270168811082,0.0164634175598621,0.0834167003631591,0.5304516553878784,0.0336063057184219,0.5570446848869324,2.978881425511092,-6.950404405330597,303.0607932986844,-0.055592950485169,-0.0332661194988049,-0.035,-0.01,0.002,0.49
2025-07-30 17:15:21.110968,1753866921.110968,-0.7970606088638306,-0.5639975666999817,9.781614303588867,-0.0238699112087488,0.0158031787723302,0.0843757688999176,0.5304028987884521,0.0342765524983406,0.5564939975738525,2.95686259443921,-6.93310389544778,303.11230163478604,-0.0564227182288081,-0.0321824480871515,-0.035,-0.01,0.002,0.49
2025-07-30 17:15:21.118158,1753866921.118158,-0.7867922782897949,-0.5451256632804871,9.80949592590332,-0.0268640723079442,0.0153806190937757,0.0907674580812454,0.5291635990142822,0.03460493683815,0.5559259653091431,2.945327828190582,-6.924040864952252,303.1392847482333,-0.0568573996581848,-0.0316147568966912,-0.035,-0.01,0.002,0.49
2025-07-30 17:15:21.128121,1753866921.128121,-0.7894906997680664,-0.5410882234573364,9.82168674468994,-0.0261071287095546,0.0087736053392291,0.0955596566200256,0.5285941958427429,0.0350983031094074,0.5569359660148621,2.9293446973343498,-6.911482690885976,303.1766738572833,-0.0574597153026243,-0.0308281364843237,-0.035,-0.01,0.002,0.49
2025-07-30 17:15:21.137437,1753866921.137437,-0.7878763675689697,-0.5471077561378479,9.797259330749512,-0.0268282406032085,0.0074495789594948,0.1013130918145179,0.528863787651062,0.0345953702926635,0.5559304356575012,2.914398880735712,-6.89973954943912,303.21163639195026,-0.0580229403201291,-0.0300925681828601,-0.035,-0.01,0.002,0.49
2025-07-30 17:15:21.148897,1753866921.148897,-0.7773925065994263,-0.5360187292098999,9.780366897583008,-0.023555276915431,0.0090635800734162,0.1032873094081878,0.5282872319221497,0.0348166972398757,0.5565950274467468,2.8960140919799824,-6.885294358478545,303.2546436649202,-0.058715761143965,-0.0291877485800923,-0.035,-0.01,0.002,0.49
2025-07-30 17:15:21.159937,1753866921.159937,-0.7871479988098145,-0.5390574932098389,9.775615692138672,-0.0217441953718662,0.0069493330083787,0.1050473824143409,0.5280004143714905,0.0359267853200435,0.5576705932617188,2.878302869008775,-6.871378397769738,303.2960752750994,-0.0593831990053997,-0.0283160789652677,-0.035,-0.01,0.002,0.49
2025-07-30 17:15:21.167192,1753866921.167192,-0.771769642829895,-0.5433040857315063,9.766396522521973,-0.0206376295536756,0.0052455784752964,0.1091236844658851,0.5285913944244385,0.0362495072185993,0.5576967597007751,2.8714559065750938,-6.87472733432552,303.3498310368782,-0.0595356561949718,-0.0282126813398932,-0.035,-0.01,0.002,0.49
2025-07-30 17:15:21.183192,1753866921.183192,-0.7681864500045776,-0.5345025062561035,9.78880214691162,-0.0203476324677467,0.0037161523941904,0.1141517981886863,0.5280148386955261,0.0364708341658115,0.5583613514900208,2.8586216292256643,-6.888019978894573,303.48092401529027,-0.0597365853857334,-0.0282065958437916,-0.035,-0.01,0.002,0.49
2025-07-30 17:15:21.187500,1753866921.1875,-0.7745229601860046,-0.5430461764335632,9.810781478881836,-0.0247252993285655,0.0011676712892949,0.118943803012371,0.5273980498313904,0.0370588488876819,0.5584402680397034,2.855166018839176,-6.891599003983879,303.51622060780284,-0.0597906852761784,-0.0282049573328756,-0.035,-0.01,0.002,0.49
2025-07-30 17:15:21.204679,1753866921.204679,-0.7791804075241089,-0.5437215566635132,9.800950050354004,-0.0225352421402931,0.0019047694513574,0.1222567036747932,0.5273493528366089,0.0377291031181812,0.5578895807266235,2.8413860337382832,-6.905871131593864,303.6569733155842,-0.0600064201539316,-0.0281984234203436,-0.035,-0.01,0.002,0.49
2025-07-30 17:15:21.209810,1753866921.20981,-0.767155647277832,-0.5249374508857727,9.803061485290527,-0.0253428202122449,-0.0059114219620823,0.1255976110696792,0.527347981929779,0.0383047014474868,0.5582699775695801,2.8372702447556266,-6.910133913095161,303.69901316103574,-0.0600708555815849,-0.0281964718793938,-0.035,-0.01,0.002,0.49
2025-07-30 17:15:21.218624,1753866921.218624,-0.7613392472267151,-0.535885214805603,9.79417610168457,-0.02513387799263,-0.0052566989324986,0.1306386739015579,0.527040958404541,0.0380231030285358,0.5579290390014648,2.830200099181545,-6.917456563962754,303.771229649419,-0.0601815434364668,-0.0281931195018381,-0.035,-0.01,0.002,0.49
2025-07-30 17:15:21.228089,1753866921.228089,-0.7493922710418701,-0.5363703370094299,9.774827003479004,-0.0223469492048025,-0.0090079335495829,0.1338461339473724,0.5267168283462524,0.0383486524224281,0.5576580762863159,2.822607854080366,-6.9253199607761005,303.8487790116503,-0.060300405108434,-0.0281895195657679,-0.035,-0.01,0.002,0.49
2025-07-30 17:15:21.237133,1753866921.237133,-0.7579525113105774,-0.5193583369255066,9.792552947998049,-0.01993253454566,-0.0115672489628195,0.1371483951807022,0.5255591869354248,0.0373680852353572,0.5578811168670654,2.815353348087192,-6.93283355636593,303.9228786100664,-0.0604139792489093,-0.0281860797719455,-0.036,-0.007,0.0,0.49
2025-07-30 17:15:21.249721,1753866921.249721,-0.763677716255188,-0.5255002975463867,9.804366111755373,-0.0210286006331443,-0.0144944274798035,0.1405723094940185,0.5252737998962402,0.0379025675356388,0.5585762858390808,2.805255981482188,-6.943291543341698,304.0260159995998,-0.0605720602725251,-0.028181292008409,-0.036,-0.007,0.0,0.49
2025-07-30 17:15:21.257819,1753866921.257819,-0.7562260627746582,-0.5194413661956787,9.81015396118164,-0.0205797608941793,-0.0140631310641765,0.1441788971424102,0.525751531124115,0.0395973473787307,0.5571907162666321,2.798760336633161,-6.950019175593526,304.0923643733166,-0.060673753934541,-0.0281782120359002,-0.036,-0.007,0.0,0.49
2025-07-30 17:15:21.268335,1753866921.268335,-0.7472633719444275,-0.5321512818336487,9.784295082092283,-0.019743800163269,-0.0181144438683986,0.1494101136922836,0.5251964926719666,0.0406347550451755,0.5588914752006531,2.790324891233458,-6.958755887013034,304.1785264244841,-0.0608058164708046,-0.0281742122882948,-0.036,-0.007,0.0,0.49
2025-07-30 17:15:21.277567,1753866921.277567,-0.7495594024658203,-0.5184089541435242,9.787439346313477,-0.0201058126986026,-0.0175429340451955,0.1533342748880386,0.5248967409133911,0.0406251884996891,0.5588958859443665,2.782919683984844,-6.96642556604801,304.25416532861163,-0.0609217499401676,-0.028170701038022,-0.036,-0.007,0.0,0.49
2025-07-30 17:15:21.294457,1753866921.294457,-0.7369276881217957,-0.5027318000793457,9.751604080200195,-0.0218370482325553,-0.023320747539401,0.1550773084163665,0.5251951217651367,0.0412103570997715,0.5592718720436096,2.7693714881245524,-6.980457626227135,304.3925504748165,-0.0611338560024236,-0.0281642770305889,-0.036,-0.007,0.0,0.49
2025-07-30 17:15:21.300612,1753866921.300612,-0.7397921085357666,-0.5025691390037537,9.762768745422363,-0.0182027239352464,-0.0251671001315116,0.1590526401996612,0.5242799520492554,0.0412131957709789,0.5589748024940491,2.7644343008016463,-6.985571141734662,304.44298031776884,-0.0612111509701433,-0.0281619360157122,-0.036,-0.007,0.0,0.49
2025-07-30 17:15:21.307276,1753866921.307276,-0.7414152026176453,-0.5166865587234497,9.762665748596191,-0.0177850071340799,-0.0272430274635553,0.1624396443367004,0.5239328145980835,0.0412982702255249,0.5580481290817261,2.7590888048742164,-6.991107548302329,304.49758074155096,-0.0612948382819938,-0.0281594013973817,-0.036,-0.007,0.0,0.49
2025-07-30 17:15:21.317320,1753866921.31732,-0.7452341914176941,-0.5288936495780945,9.775094985961914,-0.0172503795474767,-0.0335283502936363,0.1664438545703888,0.5230564475059509,0.0415100306272506,0.5587171316146851,2.751032025065595,-6.999452070354588,304.5798749941034,-0.0614209725553165,-0.02815558119771,-0.036,-0.007,0.0,0.49
2025-07-30 17:15:21.327845,1753866921.327845,-0.7512900233268738,-0.51124107837677,9.779952049255373,-0.0115264756605029,-0.0333038419485092,0.1701115220785141,0.5239859819412231,0.0420512482523918,0.5597050189971924,2.742589503591715,-7.008196110565303,304.6661093223157,-0.0615531458722512,-0.0281515780949159,-0.036,-0.007,0.0,0.49
2025-07-30 17:15:21.339383,1753866921.339383,-0.7346665263175964,-0.5218738913536072,9.763609886169434,-0.0125154415145516,-0.0321913063526153,0.1772839426994323,0.5236446857452393,0.042983952909708,0.5595041513442993,2.733334572304244,-7.01778157523666,304.76064183664755,-0.0616980380078594,-0.0281471897801914,-0.036,-0.007,0.0,0.49
2025-07-30 17:15:21.347643,1753866921.347643,-0.72935551404953,-0.5037417411804199,9.740699768066406,-0.0142994541674852,-0.0332898125052452,0.1724687963724136,0.5224197506904602,0.043856393545866,0.5596268773078918,2.726708880686562,-7.02464389878633,304.82831854524227,-0.061801767638966,-0.0281440481447559,-0.036,-0.007,0.0,0.49
2025-07-30 17:15:21.358647,1753866921.358647,-0.734824538230896,-0.5172348022460938,9.73653507232666,-0.0127292517572641,-0.0362517647445201,0.1754119843244552,0.5218531489372253,0.0431985482573509,0.5598760843276978,2.717881956264161,-7.033786070627435,304.9184792750789,-0.0619399590410076,-0.0281398627736049,-0.036,-0.007,0.0,0.49
2025-07-30 17:15:21.367054,1753866921.367054,-0.7301178574562073,-0.5144269466400146,9.738572120666504,-0.0155422072857618,-0.0384494997560977,0.1791251599788665,0.5218833088874817,0.0437110550701618,0.5608772039413452,2.716655930811255,-7.04946460920069,304.9968894798716,-0.0615921617054196,-0.0277002772880948,-0.036,-0.007,0.0,0.49
2025-07-30 17:15:21.377832,1753866921.377832,-0.7222421169281006,-0.5199956893920898,9.750381469726562,-0.0092435572296381,-0.0372429676353931,0.1801752895116806,0.5209739804267883,0.0445615127682685,0.5613058805465698,2.718199758114396,-7.074474611619351,305.10279603211256,-0.0608902592441495,-0.0268902890270298,-0.036,-0.007,0.0,0.49
2025-07-30 17:15:21.388298,1753866921.388298,-0.7127312421798706,-0.5183219909667969,9.762551307678224,-0.011848296970129,-0.0396940261125564,0.1824378818273544,0.5218417644500732,0.044653333723545,0.560671865940094,2.719698915990635,-7.0987609693190885,305.20563826169,-0.0602086657776887,-0.0261037371382488,-0.036,-0.007,0.0,0.49
2025-07-30 17:15:21.416132,1753866921.416132,-0.7098196744918823,-0.5240496397018433,9.76451587677002,-0.0097107328474521,-0.0434815026819705,0.1842614263296127,0.5211374759674072,0.0457026660442352,0.5592340230941772,2.723685833096282,-7.163349026708906,305.479140773189,-0.0583960103572023,-0.0240119513233179,-0.036,-0.007,0.0,0.49
2025-07-30 17:15:21.417496,1753866921.417496,-0.6936647891998291,-0.5351293683052063,9.72682285308838,-0.0060819196514785,-0.046544887125492,0.1847875714302063,0.5206182599067688,0.0449501611292362,0.5604142546653748,2.7238812106125687,-7.166514142486396,305.4925436707108,-0.058307181795044,-0.0239094440711488,-0.036,-0.007,0.0,0.49
2025-07-30 17:15:21.430320,1753866921.43032,-0.7170161604881287,-0.5280119776725769,9.742483139038086,-0.0075353840366005,-0.046301744878292,0.187124028801918,0.5203184485435486,0.0449405945837497,0.5604186654090881,2.7257181212656088,-7.196272095193888,305.61855574061167,-0.0574720287271594,-0.0229456859729724,-0.035,0.0,0.0,0.48
2025-07-30 17:15:21.437597,1753866921.437597,-0.715728759765625,-0.5386428236961365,9.74105739593506,-0.0092847989872097,-0.048013262450695,0.1887066960334777,0.5202553272247314,0.0450667962431907,0.5591772198677063,2.726760476195186,-7.213158245125808,305.69006128827124,-0.0569981211281043,-0.0223988014509128,-0.035,0.0,0.0,0.48
2025-07-30 17:15:21.448166,1753866921.448166,-0.7128456234931946,-0.531100869178772,9.748891830444336,-0.0102470442652702,-0.0466252975165843,0.1832412183284759,0.5202669501304626,0.0467620529234409,0.5606288313865662,2.7282743531257023,-7.237683051505862,305.79391324496487,-0.0563098356304793,-0.0216045270266163,-0.035,0.0,0.0,0.48
2025-07-30 17:15:21.460719,1753866921.460719,-0.7105571627616882,-0.5190809965133667,9.735427856445312,-0.0088901175186038,-0.0450013279914855,0.1830935776233673,0.5193503499031067,0.0473404861986637,0.5607120990753174,2.730072468313177,-7.266812517668481,305.91726394594684,-0.0554923209556399,-0.020661123453604,-0.035,0.0,0.0,0.48
2025-07-30 17:15:21.467353,1753866921.467353,-0.6932897567749023,-0.5136515498161316,9.732376098632812,-0.0084672179073095,-0.0474293753504753,0.1832845956087112,0.5197462439537048,0.0465851575136184,0.5621894598007202,2.7310227181629734,-7.282206565301522,305.9824510851785,-0.0550602890133128,-0.0201625630110934,-0.035,0.0,0.0,0.48
2025-07-30 17:15:21.478195,1753866921.478195,-0.6980524063110352,-0.5138549208641052,9.73578643798828,-0.0098203662782907,-0.045118611305952,0.1798687130212783,0.5188713073730469,0.0462213195860385,0.5624780654907227,2.7325756979174978,-7.307364837433234,306.08898549557995,-0.0543542253818525,-0.0193477728021904,-0.035,0.0,0.0,0.48
2025-07-30 17:15:21.487656,1753866921.487656,-0.6855951547622681,-0.5103054642677307,9.731369972229004,-0.0076739271171391,-0.0455031394958496,0.1810751110315323,0.5181800127029419,0.0483903028070926,0.5621113777160645,2.7339309095900752,-7.3293192666236,306.1819530156565,-0.0537380771853614,-0.0186367440855634,-0.035,0.0,0.0,0.48
2025-07-30 17:15:21.504632,1753866921.504632,-0.6933051347732544,-0.5205817222595215,9.731318473815918,-0.0064061237499117,-0.0453772209584713,0.1815904825925827,0.5172706842422485,0.04924076795578,0.5625400543212891,2.736362524677414,-7.368711431208245,306.34876180945963,-0.0526325412156373,-0.0173609668842107,-0.035,0.0,0.0,0.48
2025-07-30 17:15:21.510824,1753866921.510824,-0.7110490202903748,-0.5250402688980103,9.75739574432373,-0.0075950529426336,-0.0466958656907081,0.176915094256401,0.5178931951522827,0.0495003834366798,0.5631869435310364,2.737249458688162,-7.383079762244281,306.4096054821635,-0.0522292958760442,-0.0168956258868184,-0.035,0.0,0.0,0.48
2025-07-30 17:15:21.519697,1753866921.519697,-0.7091767191886902,-0.5179541110992432,9.749300003051758,-0.0105596166104078,-0.0513274855911731,0.1745653003454208,0.5184783935546875,0.0489754825830459,0.5624873042106628,2.738520419996698,-7.403669335531298,306.4967934273079,-0.0516514521827596,-0.0162288001751032,-0.035,0.0,0.0,0.48
2025-07-30 17:15:21.527607,1753866921.527607,-0.6999210715293884,-0.5363401770591736,9.733236312866213,-0.0076897945255041,-0.0510284416377544,0.1763823330402374,0.5175461173057556,0.0495854653418064,0.5622602701187134,2.73965344566666,-7.422024351463783,306.57451898771365,-0.0511363210506631,-0.0156343441175588,-0.035,0.0,0.0,0.48
2025-07-30 17:15:21.547442,1753866921.547442,-0.7029779553413391,-0.5212994813919067,9.711675643920898,-0.0095796156674623,-0.051352996379137,0.1720248013734817,0.5166926980018616,0.0500377006828784,0.5635850429534912,2.742494598802472,-7.468051032462279,306.7694220914419,-0.0498445882416798,-0.0141436976681707,-0.035,0.0,0.0,0.48
2025-07-30 17:15:21.557775,1753866921.557775,-0.7002896070480347,-0.5248042345046997,9.726567268371582,-0.0087783252820372,-0.0443362221121788,0.16547891497612,0.5166624784469604,0.0495252013206481,0.5625839233398438,2.743974700455308,-7.492028679341559,306.87095706410315,-0.0491716587041971,-0.0133671438648137,-0.035,0.0,0.0,0.48
2025-07-30 17:15:21.568460,1753866921.56846,-0.6902128458023071,-0.534957766532898,9.73326301574707,-0.0096601815894246,-0.0443802028894424,0.166269913315773,0.516691267490387,0.050613310188055,0.563965380191803,2.744260366149052,-7.50686417454651,306.9643314104856,-0.0488463637590217,-0.0127763418212704,-0.035,0.0,0.0,0.48
2025-07-30 17:15:21.577771,1753866921.577771,-0.7029904127120972,-0.5273347496986389,9.739087104797363,-0.0088099129498004,-0.0440227724611759,0.1711039990186691,0.5166813135147095,0.0514924898743629,0.5643808245658875,2.7439936267396146,-7.515666571799106,307.04088559352675,-0.0487163988680847,-0.0123494146885769,-0.035,0.0,0.0,0.48
2025-07-30 17:15:21.591803,1753866921.591803,-0.7003538608551025,-0.5264935493469238,9.72353172302246,-0.0105720022693276,-0.0400946252048015,0.1657655537128448,0.5162912011146545,0.0530954375863075,0.5636293292045593,2.743591635908118,-7.528932264327248,307.1562569207715,-0.048520534692321,-0.0117060122253941,-0.035,0.0,0.0,0.48
2025-07-30 17:15:21.599675,1753866921.599675,-0.6942635178565979,-0.5222129225730896,9.6886568069458,-0.0099049201235175,-0.0421232432126998,0.1652291119098663,0.5160144567489624,0.0533263497054576,0.5642894506454468,2.743366123525423,-7.536374170201035,307.220978951383,-0.048410657069499,-0.0113450706040041,-0.035,0.0,0.0,0.48
2025-07-30 17:15:21.607434,1753866921.607434,-0.7006429433822632,-0.5380445718765259,9.673654556274414,-0.0057527124881744,-0.0408621616661548,0.1596838533878326,0.5157791376113892,0.0526149719953537,0.5651549100875854,2.74314384182259,-7.543709463678832,307.2847737772067,-0.0483023535483699,-0.010989299815425,-0.035,0.0,0.0,0.48
2025-07-30 17:15:21.617458,1753866921.617458,-0.7029359340667725,-0.5283163189888,9.683917045593262,-0.0068291863426566,-0.0345453731715679,0.1600610762834549,0.5145498514175415,0.0520641766488552,0.5641714930534363,2.742856673314912,-7.553186020923812,307.3671911093395,-0.0481624348769603,-0.0105296750908976,-0.035,0.0,0.0,0.48
2025-07-30 17:15:21.630461,1753866921.630461,-0.6921751499176025,-0.5276679992675781,9.70421314239502,-0.0050780256278812,-0.0344607792794704,0.1585918664932251,0.5142658352851868,0.0520230531692504,0.5644862651824951,2.7424841684135752,-7.565478678116911,307.47409997766465,-0.0479809372910662,-0.0099334660426084,-0.035,0.0,0.0,0.48
2025-07-30 17:15:21.637382,1753866921.637382,-0.7110946178436279,-0.5201968550682068,9.725990295410156,-0.0088153602555394,-0.0315671563148498,0.1535117626190185,0.5145326852798462,0.0526713319122791,0.5642415285110474,2.742285894828536,-7.572021704000853,307.53100447615395,-0.0478843313755408,-0.0096161212103302,-0.032,0.01,0.004,0.48
2025-07-30 17:15:21.649859,1753866921.649859,-0.7083140015602112,-0.5168066024780273,9.733449935913086,-0.0093821426853537,-0.0320958569645881,0.1528840214014053,0.5148396492004395,0.0529529303312301,0.5645824670791626,2.741928457326303,-7.583817137207594,307.6335890024876,-0.0477101751603328,-0.0090440281391674,-0.032,0.01,0.004,0.48
2025-07-30 17:15:21.657287,1753866921.657287,-0.7118473649024963,-0.5038145780563354,9.727120399475098,-0.0072827748954296,-0.0277445930987596,0.1543389409780502,0.5145700573921204,0.053455863147974,0.5655879974365234,2.7417156627573576,-7.590839355383014,307.69466102186254,-0.0476064941069658,-0.0087034418892233,-0.032,0.01,0.004,0.48
2025-07-30 17:15:21.667719,1753866921.667719,-0.7166209816932678,-0.5293216109275818,9.687673568725586,-0.0081658093258738,-0.0274223107844591,0.1489990353584289,0.5133365392684937,0.0546318776905536,0.5657458305358887,2.7414168077946166,-7.600701565502271,307.78043236539486,-0.0474608813805952,-0.008225112524232,-0.032,0.01,0.004,0.48
2025-07-30 17:15:21.679650,1753866921.67965,-0.6993244886398315,-0.5100882649421692,9.666112899780272,-0.0057848147116601,-0.0232069306075572,0.1506759822368621,0.512666642665863,0.0544669069349765,0.5641679167747498,2.7410750045972576,-7.611981066839213,307.87852984784,-0.0472943427526495,-0.0076780427856362,-0.032,0.01,0.004,0.48
2025-07-30 17:15:21.688046,1753866921.688046,-0.6981590986251831,-0.5109513998031616,9.697603225708008,-0.0068649752065539,-0.0236966740339994,0.1477330029010772,0.5132734179496765,0.0547580756247043,0.5645043849945068,2.7408344794569777,-7.619918393529868,307.94756053833225,-0.0471771503824257,-0.0072930726430658,-0.032,0.01,0.004,0.48
2025-07-30 17:15:21.699946,1753866921.699946,-0.6941592693328857,-0.5197144746780396,9.722277641296388,-0.0070569301024079,-0.0197841431945562,0.1472905129194259,0.5129650235176086,0.0550520829856395,0.5645438432693481,2.740493571014506,-7.631168367966445,308.0454012262167,-0.0470110477107629,-0.0067474349955867,-0.032,0.01,0.004,0.48
2025-07-30 17:15:21.707546,1753866921.707546,-0.7197964191436768,-0.524734377861023,9.722989082336426,-0.0125630116090178,-0.0176440346986055,0.1436204016208648,0.5130023956298828,0.0558366142213344,0.5658903121948242,2.740275845048393,-7.638353322188168,308.10788855607115,-0.0469049639059745,-0.0063989558465105,-0.032,0.01,0.004,0.48
2025-07-30 17:15:21.723278,1753866921.723278,-0.7156557440757751,-0.5227720141410828,9.709775924682615,-0.0080437436699867,-0.0164719093590974,0.1430057436227798,0.5133351683616638,0.0552074834704399,0.5661262273788452,2.739825154962312,-7.653226089522626,308.23723656436687,-0.0466853717279477,-0.0056776082714002,-0.032,0.01,0.004,0.48
2025-07-30 17:15:21.730814,1753866921.730814,-0.7094539403915405,-0.5162410736083984,9.690863609313965,-0.0077761206775903,-0.0104949725791811,0.1397702097892761,0.5126796364784241,0.0555865578353405,0.5652390122413635,2.739609266317304,-7.660350412170311,308.2991965832531,-0.0465801831310988,-0.0053320698285103,-0.032,0.01,0.004,0.48
2025-07-30 17:15:21.738151,1753866921.738151,-0.7235308289527893,-0.4923259317874908,9.688005447387695,-0.0075466353446245,-0.0111159337684512,0.1392029076814651,0.511454701423645,0.0564589984714984,0.5653617978096008,2.7393990740507426,-7.667286754398856,308.35952174211184,-0.0464777700116535,-0.0049956486679974,-0.032,0.01,0.004,0.48
2025-07-30 17:15:21.747858,1753866921.747858,-0.7024561762809753,-0.4963200688362121,9.676097869873049,-0.0058763506822288,-0.0077684824354946,0.1370236575603485,0.5117846727371216,0.0569810792803764,0.5663584470748901,2.739120989695742,-7.676463534716431,308.4393319233613,-0.0463422774612833,-0.0045505634945028,-0.032,0.01,0.004,0.48
2025-07-30 17:15:21.762455,1753866921.762455,-0.7011930346488953,-0.5038774013519287,9.683520317077637,-0.0062153115868568,-3.116295920335688e-05,0.1363079994916916,0.5114849209785461,0.0569715052843093,0.5663629174232483,2.738277515510586,-7.687817702102269,308.5587800575425,-0.0461552205582286,-0.0039189236786878,-0.032,0.01,0.004,0.48
2025-07-30 17:15:21.768625,1753866921.768625,-0.7144515514373779,-0.4956910312175751,9.723886489868164,-0.0080890385434031,-0.0037855058908462,0.1380808502435684,0.5109226703643799,0.0577368959784507,0.5677182674407959,2.7359796533711465,-7.681454391158859,308.60668164723575,-0.0461523407274561,-0.0038238383096985,-0.032,0.01,0.004,0.48
2025-07-30 17:15:21.777900,1753866921.7779,-0.7238897681236267,-0.4791362285614013,9.72165584564209,-0.006367911119014,-0.0002258504973724,0.1349057555198669,0.51092129945755,0.058312501758337,0.5680986642837524,2.732525445984908,-7.671888893175142,308.678688588858,-0.046148011689367,-0.0036809034581037,-0.032,0.01,0.004,0.48
2025-07-30 17:15:21.787041,1753866921.787041,-0.7219240665435791,-0.4829629361629486,9.717239379882812,-0.0056955269537866,0.005687681492418,0.135547250509262,0.5105583667755127,0.0584291256964206,0.566861629486084,2.7291211400060797,-7.662461583713014,308.74965527802044,-0.0461437451909779,-0.0035400335231352,-0.032,0.01,0.004,0.48
2025-07-30 17:15:21.798444,1753866921.798444,-0.7286590337753296,-0.4774134159088135,9.714251518249512,-0.0037011911626905,0.0091372840106487,0.1353464126586914,0.5104866623878479,0.058858897536993,0.5656552314758301,2.724874370408912,-7.6507012979291185,308.83818409412004,-0.04613842286221,-0.0033643025046253,-0.032,0.01,0.004,0.48
2025-07-30 17:15:21.807102,1753866921.807102,-0.738519549369812,-0.4493683576583862,9.69482135772705,-0.0043407422490417,0.0095919724553823,0.1333661824464798,0.5101768374443054,0.0597285032272338,0.5660750865936279,2.721649958115872,-7.641772155628447,308.9054006916747,-0.0461343818183262,-0.0032308765573523,-0.032,0.01,0.004,0.48
2025-07-30 17:15:21.816839,1753866921.816839,-0.7329451441764832,-0.4601561427116394,9.709986686706545,-0.0041046855039894,0.0100524108856916,0.1356467306613922,0.5093019008636475,0.059364665299654,0.5663636922836304,2.718023670787354,-7.631730128543595,308.9809948383986,-0.046129837118425,-0.0030808210502028,-0.032,0.01,0.004,0.48
2025-07-30 17:15:21.827397,1753866921.827397,-0.7329596877098083,-0.4584125280380249,9.72184944152832,-0.0069637657143175,0.0093772029504179,0.1371547579765319,0.5101998448371887,0.0599689781665802,0.566730797290802,2.714091581951505,-7.620841266461674,309.0629637706592,-0.0461249091681207,-0.0029181114988166,-0.032,0.01,0.004,0.48
2025-07-30 17:15:21.837551,1753866921.837551,-0.7220962643623352,-0.4497277438640594,9.746940612792969,-0.0067113046534359,0.0089816320687532,0.1395024061203003,0.5098915100097656,0.0602629855275154,0.5667702555656433,2.710309996470746,-7.610369182927961,309.14179528669297,-0.0461201698384416,-0.0027616297653693,-0.028,0.017,0.005,0.49
2025-07-30 17:15:21.847181,1753866921.847181,-0.7222846746444702,-0.46644127368927,9.753592491149902,-0.0024865767918527,0.0086456658318638,0.1370310187339782,0.5087094902992249,0.0596175417304039,0.5667179226875305,2.706723576992633,-7.60043755912815,309.21655834203887,-0.0461156751035319,-0.0026132239869835,-0.028,0.017,0.005,0.49
2025-07-30 17:15:21.857626,1753866921.857626,-0.7330313920974731,-0.4641590118408203,9.74042510986328,-0.0042123575694859,0.0080442372709512,0.1377623081207275,0.508368194103241,0.0605502463877201,0.5665170550346375,2.702833664613225,-7.589665493394547,309.2976480573627,-0.0461108000115149,-0.0024522596943117,-0.028,0.017,0.005,0.49
2025-07-30 17:15:21.867762,1753866921.867762,-0.7382689118385315,-0.4630337953567505,9.716072082519531,-0.0076566501520574,0.0081213349476456,0.1399121284484863,0.5088932514190674,0.062150377780199,0.5660625696182251,2.699058738572956,-7.579211851389516,309.3763407496698,-0.0461060690278811,-0.0022960535280298,-0.028,0.017,0.005,0.49
2025-07-30 17:15:21.877792,1753866921.877792,-0.7427218556404114,-0.440904438495636,9.698271751403809,-0.0073444442823529,0.0080833742395043,0.14117132127285,0.5088860392570496,0.0618783459067344,0.5657171607017517,2.695323414005472,-7.56886787500838,309.45420790354785,-0.0461013876753971,-0.0021414860678249,-0.028,0.017,0.005,0.49
2025-07-30 17:15:21.886657,1753866921.886657,-0.742676317691803,-0.4373460412025451,9.703378677368164,-0.0106583777815103,0.0077962088398635,0.1423969268798828,0.5085848569869995,0.0624443776905536,0.5661020278930664,2.692021840995279,-7.559725056862051,309.52303300535084,-0.0460972499286677,-0.0020048672156618,-0.028,0.017,0.005,0.49
2025-07-30 17:15:21.897648,1753866921.897648,-0.7443180084228516,-0.4401126503944397,9.713196754455566,-0.0124114518985152,0.0097988843917846,0.143976092338562,0.5071147084236145,0.0634846240282058,0.5675056576728821,2.6879285049070165,-7.548389663898981,309.60836332278404,-0.0460921198927851,-0.0018354852646434,-0.028,0.017,0.005,0.49
2025-07-30 17:15:21.907215,1753866921.907215,-0.7332106828689575,-0.4265081286430359,9.73698902130127,-0.0131981680169701,0.0129614034667611,0.1452385783195495,0.5074690580368042,0.0636715739965438,0.5687776803970337,2.684365526659431,-7.53852295428013,309.6826377186114,-0.0460876545359551,-0.0016880494826799,-0.028,0.017,0.005,0.49
2025-07-30 17:15:21.917565,1753866921.917565,-0.7282152771949768,-0.4214161932468414,9.747153282165527,-0.013629175722599,0.0085302079096436,0.1480637341737747,0.5077228546142578,0.0632001906633377,0.5674617886543274,2.6805109537108933,-7.527848751592066,309.7629907426915,-0.0460828237336188,-0.0015285475330994,-0.028,0.017,0.005,0.49
2025-07-30 17:15:21.927643,1753866921.927643,-0.7062501907348633,-0.4573765695095062,9.719097137451172,-0.0114438440650701,0.0088937832042574,0.1460059881210327,0.5064821839332581,0.0641041845083236,0.5672742128372192,2.676757693050354,-7.517455106027012,309.8412317951405,-0.0460781199024526,-0.0013732378786623,-0.028,0.017,0.005,0.49
2025-07-30 17:15:21.937210,1753866921.93721,-0.7226188778877258,-0.4409106075763702,9.730098724365234,-0.0161374453455209,0.0106616523116827,0.1506217420101165,0.5055728554725647,0.0649546384811401,0.5677028894424438,2.673194714802768,-7.507588396408161,309.9155061909679,-0.0460736545456226,-0.0012258020966988,-0.028,0.017,0.005,0.49
2025-07-30 17:15:21.947784,1753866921.947784,-0.7325011491775513,-0.4385831654071808,9.729437828063965,-0.0139387249946594,0.0078021623194217,0.1523648053407669,0.5067318081855774,0.0653596073389053,0.5670995116233826,2.669256765659288,-7.496683305781,309.99759728810807,-0.0460687192507984,-0.0010628500462071,-0.028,0.017,0.005,0.49
2025-07-30 17:15:21.962852,1753866921.962852,-0.7398579120635986,-0.4254903793334961,9.734642028808594,-0.0183095019310712,0.0125194881111383,0.15037602186203,0.5061150789260864,0.0659476220607757,0.5671783685684204,2.661116747255624,-7.481939202232432,310.1151412514004,-0.0461635452400381,-0.0008023439266617,-0.028,0.017,0.005,0.49
2025-07-30 17:15:21.969173,1753866921.969173,-0.7493447065353394,-0.4308006167411804,9.747495651245115,-0.0243197157979011,0.0094635048881173,0.1517057716846466,0.5058842301368713,0.0666594803333282,0.5691500306129456,2.64898425757526,-7.478498645556463,310.1663874381783,-0.0465545386271261,-0.000595501233132,-0.028,0.017,0.005,0.49
2025-07-30 17:15:21.978410,1753866921.97841,-0.7379955053329468,-0.4305044114589691,9.767775535583496,-0.0195042286068201,0.0077788941562175,0.1530928909778595,0.505867063999176,0.0672666281461715,0.5692200660705566,2.631254586193005,-7.473470828443568,310.24127545169426,-0.0471259122238352,-0.0002932340908788,-0.028,0.017,0.005,0.49
2025-07-30 17:15:21.988040,1753866921.98804,-0.7423216104507446,-0.4363902509212494,9.756569862365724,-0.0235816873610019,0.0053722951561212,0.1541956812143325,0.5052173137664795,0.0684933438897132,0.5690586566925049,2.6127707528088924,-7.468229144500483,310.31934895539626,-0.0477215901771346,2.189050305431012e-05,-0.028,0.017,0.005,0.49
2025-07-30 17:15:21.997682,1753866921.997682,-0.732254147529602,-0.4265704751014709,9.762367248535156,-0.0236041415482759,0.003844931256026,0.1552528142929077,0.505168616771698,0.0691635906696319,0.568507969379425,2.5942635806735086,-7.462980842105736,310.39752103919506,-0.0483180202676828,0.0003374129914265,-0.028,0.017,0.005,0.49
2025-07-30 17:15:22.007559,1753866922.007559,-0.7228168845176697,-0.4285120964050293,9.760316848754885,-0.027019215747714,0.0057992320507764,0.1558770686388015,0.5054512619972229,0.0697803199291229,0.5685735940933228,2.575305650302792,-7.457604712752411,310.4775970719217,-0.0489289769305863,0.0006606203037701,-0.028,0.017,0.005,0.49
2025-07-30 17:15:22.017420,1753866922.01742,-0.7426197528839111,-0.4206190407276153,9.789522171020508,-0.0266127698123455,0.0021293142344802,0.1554056853055954,0.5045202970504761,0.0698147043585777,0.5679661631584167,2.556378380644529,-7.45223727822774,310.5575435974624,-0.0495389454916138,0.0009833048920465,-0.028,0.017,0.005,0.49
2025-07-30 17:15:22.027491,1753866922.027491,-0.7291041016578674,-0.4348111450672149,9.774168968200684,-0.0262326337397098,0.0041126636788249,0.1605875045061111,0.5033111572265625,0.0706555843353271,0.5683992505073547,2.537047945498623,-7.4467555131949394,310.63919304585136,-0.0501619068549205,0.0013128629117125,-0.028,0.017,0.005,0.49
2025-07-30 17:15:22.037182,1753866922.037182,-0.734433650970459,-0.4366977512836456,9.748086929321287,-0.0256855729967355,0.0034865690395236,0.158599317073822,0.5027832984924316,0.0702066719532013,0.5696145296096802,2.518446960735581,-7.441480607219981,310.71776138298026,-0.0507613602422533,0.001629984779693,-0.028,0.017,0.005,0.49
2025-07-30 17:15:22.047792,1753866922.047792,-0.7227358222007751,-0.4443864226341247,9.75749969482422,-0.032142486423254,0.0025365315377712,0.1549819260835647,0.5033986568450928,0.0701942592859268,0.5699160695075989,2.4980822985725646,-7.435705553937041,310.8037792827164,-0.0514176516091364,0.0019771749843084,-0.027,0.02,0.004,0.48
2025-07-30 17:15:22.056790,1753866922.05679,-0.7190966606140137,-0.4349657893180847,9.75892734527588,-0.0374086648225784,0.0035708660725504,0.1576970070600509,0.5029870271682739,0.0709811523556709,0.5681283473968506,2.4808111650094,-7.430807769933279,310.8767304872723,-0.051974247921074,0.0022716246711107,-0.027,0.02,0.004,0.48
2025-07-30 17:15:22.066756,1753866922.066756,-0.7095423340797424,-0.436480849981308,9.75450325012207,-0.0354497879743576,0.0071577113121747,0.1530536860227584,0.5027002096176147,0.0720912367105484,0.5692039728164673,2.461682541418602,-7.425383235041324,310.9575275077656,-0.0525907055093465,0.002597742074156,-0.027,0.02,0.004,0.48
2025-07-30 17:15:22.077367,1753866922.077367,-0.7101589441299438,-0.4343702793121338,9.74910831451416,-0.0337741784751415,0.0075556049123406,0.1556468307971954,0.5018324255943298,0.0719994008541107,0.5698379278182983,2.441315591142716,-7.419607532890573,311.04355507221703,-0.0532470706151756,0.0029449712880301,-0.027,0.02,0.004,0.48
2025-07-30 17:15:22.088090,1753866922.08809,-0.7071500420570374,-0.4258561432361603,9.76709270477295,-0.0362347997725009,0.0049427766352891,0.1563983708620071,0.5017750859260559,0.0729732364416122,0.5693222880363464,2.4207340158796518,-7.413770966939243,311.1304891869703,-0.0539103524341363,0.0032958595703738,-0.027,0.02,0.004,0.48
2025-07-30 17:15:22.097661,1753866922.097661,-0.7067165374755859,-0.4443075656890869,9.766668319702148,-0.0326309986412525,0.0147261228412389,0.1546463668346405,0.50029057264328,0.0734694302082061,0.5700351595878601,2.4023632152713024,-7.408561337065975,311.208085253733,-0.054502387683505,0.0036090571069253,-0.027,0.02,0.004,0.48
2025-07-30 17:15:22.106936,1753866922.106936,-0.7110581398010254,-0.4357994496822357,9.75622272491455,-0.0344700254499912,0.0103199901059269,0.1546853482723236,0.4996823668479919,0.0737538635730743,0.5700790286064148,2.3845607818997903,-7.40351288595672,311.2832806051978,-0.0550761061786958,0.0039125647436064,-0.027,0.02,0.004,0.48
2025-07-30 17:15:22.117625,1753866922.117625,-0.7130470871925354,-0.4294102489948272,9.739686965942385,-0.0358927138149738,0.0140365306288003,0.1507329642772674,0.4999663829803467,0.0737949833273887,0.569764256477356,2.364044189042225,-7.397694747851193,311.36994024203455,-0.055737293811591,0.0042623451630019,-0.027,0.02,0.004,0.48
2025-07-30 17:15:22.127680,1753866922.12768,-0.7071322202682495,-0.4363080859184265,9.742020606994627,-0.0430424474179744,0.0149536244571208,0.1501730531454086,0.500208854675293,0.0747783780097961,0.5692441463470459,2.344744414608773,-7.392221677647049,311.4514601832375,-0.0563592670730217,0.0045913804586008,-0.027,0.02,0.004,0.48
2025-07-30 17:15:22.137707,1753866922.137707,-0.7056887149810791,-0.4360020160675049,9.742358207702637,-0.0420593135058879,0.0173770971596241,0.144292414188385,0.4993166923522949,0.0750216990709304,0.5696028470993042,2.3254986396390467,-7.38676392072322,311.53275203715765,-0.0569795000953277,0.0049194951356935,-0.027,0.02,0.004,0.48
2025-07-30 17:15:22.147725,1753866922.147725,-0.7102696895599365,-0.4340587556362152,9.757973670959473,-0.0424062944948673,0.021289063617587,0.1439138650894165,0.4991188049316406,0.075094848871231,0.5718148350715637,2.306269796704555,-7.381310965421185,311.6139723721841,-0.0575991874494335,0.0052473211442716,-0.027,0.02,0.004,0.48
2025-07-30 17:15:22.162857,1753866922.162857,-0.6941612362861633,-0.4399177134037018,9.769441604614258,-0.0462935492396354,0.0242866743355989,0.1458133310079574,0.4984776377677917,0.0760179907083511,0.571618378162384,2.274877188766792,-7.371665565889582,311.7343981134808,-0.0584726733054846,0.0057658824717563,-0.027,0.02,0.004,0.48
2025-07-30 17:15:22.169702,1753866922.169702,-0.6992208957672119,-0.4388028383255005,9.774185180664062,-0.0471239052712917,0.0209585912525653,0.1410761624574661,0.4984577000141144,0.0777763500809669,0.5724492073059082,2.2519341107119057,-7.36205692634477,311.7804803643449,-0.058635008271988,0.0060875502695514,-0.027,0.02,0.004,0.48
2025-07-30 17:15:22.177334,1753866922.177334,-0.6932681202888489,-0.4585422575473785,9.761860847473145,-0.0451809912919998,0.0231966096907854,0.1401077657938003,0.4972571432590484,0.0783136636018753,0.572847306728363,2.2263530981164696,-7.351343510793779,311.8318610307474,-0.0588160080843438,0.0064462025814712,-0.027,0.02,0.004,0.48
2025-07-30 17:15:22.187916,1753866922.187916,-0.6963244676589966,-0.4527152180671692,9.760555267333984,-0.0433535203337669,0.0255021303892135,0.1405722647905349,0.496658980846405,0.0777189061045646,0.572475790977478,2.1908844260026394,-7.3364891096249565,311.90310152612733,-0.0590669685564192,0.0069434823981669,-0.027,0.02,0.004,0.48
2025-07-30 17:15:22.198171,1753866922.198171,-0.6893800497055054,-0.4275481104850769,9.75597858428955,-0.0438166931271553,0.0279135685414075,0.1393124014139175,0.4963420331478119,0.0783164873719215,0.5725502371788025,2.156512162913236,-7.322093888304809,311.97213983243773,-0.0593101713282492,0.0074253902810913,-0.027,0.02,0.004,0.48
2025-07-30 17:15:22.207127,1753866922.207127,-0.6970399618148804,-0.4167293310165405,9.769291877746582,-0.0478589758276939,0.0327289067208766,0.1395274996757507,0.4956922829151153,0.0795432031154632,0.5723888278007507,2.126492771511919,-7.309521664532575,312.03243519132707,-0.0595225751254174,0.0078462697942983,-0.027,0.02,0.004,0.48
2025-07-30 17:15:22.217121,1753866922.217121,-0.7138940691947937,-0.4338569343090057,9.787160873413086,-0.0487823858857154,0.0306378956884145,0.138916477560997,0.4956936836242676,0.0789676010608673,0.5720084309577942,2.0929955578990085,-7.295492916925474,312.0997159196264,-0.0597595864382324,0.0083159092606924,-0.027,0.02,0.004,0.48
2025-07-30 17:15:22.227624,1753866922.227624,-0.6972418427467346,-0.4247435927391052,9.807188034057615,-0.0503738112747669,0.035128366202116,0.1349655985832214,0.4951198697090149,0.0780377238988876,0.5719121694564819,2.0577913984579808,-7.28074929456854,312.17042512886786,-0.0600086753368521,0.0088094805423456,-0.027,0.02,0.004,0.48
2025-07-30 17:15:22.237077,1753866922.237077,-0.7054707407951355,-0.4164718091487884,9.822157859802246,-0.051536239683628,0.035093005746603,0.1340396851301193,0.4942119121551513,0.0783125907182693,0.5719605088233948,2.026106616089531,-7.267479599364353,312.2340655038074,-0.0602328626962004,0.0092537092610769,-0.027,0.02,0.004,0.48
2025-07-30 17:15:22.247874,1753866922.247874,-0.6988480687141418,-0.4134065806865692,9.800503730773926,-0.0555363111197948,0.0356830656528472,0.1333285123109817,0.4942063391208648,0.0806149989366531,0.573482096195221,1.9899171269640143,-7.252323317566153,312.30675379404204,-0.0604889233472999,0.0097610951158643,-0.027,0.018,0.0,0.48
2025-07-30 17:15:22.257424,1753866922.257424,-0.691769540309906,-0.4009744524955749,9.79786205291748,-0.0557996146380901,0.0373969078063964,0.1318319737911224,0.4938492476940155,0.0815792456269264,0.5729708671569824,1.9579070978951696,-7.238917407931637,312.37104744226974,-0.0607154120069397,0.0102098838761735,-0.027,0.018,0.0,0.48
2025-07-30 17:15:22.267666,1753866922.267666,-0.6970781683921814,-0.3938865959644317,9.813145637512209,-0.0548680797219276,0.0333523005247116,0.1307603567838668,0.4938406646251678,0.0818828269839286,0.5730059146881104,1.9235779879306347,-7.224540259287748,312.43999907350013,-0.0609583094465443,0.0106911867412965,-0.027,0.018,0.0,0.48
2025-07-30 17:15:22.277725,1753866922.277725,-0.699184000492096,-0.405265063047409,9.815787315368652,-0.0538014955818653,0.0363349840044975,0.1297611892223358,0.4929083287715912,0.0824928283691406,0.5727788209915161,1.8898626112975572,-7.210420144261779,312.50771799248173,-0.0611968643833878,0.0111638849087981,-0.027,0.018,0.0,0.48
2025-07-30 17:15:22.287670,1753866922.28767,-0.7034408450126648,-0.409625381231308,9.813061714172363,-0.0544972270727157,0.0347584895789623,0.1303166151046753,0.4920075833797455,0.0830397084355354,0.5731725096702576,1.8565292197327563,-7.196460005888628,312.5746696764959,-0.0614327165646064,0.0116312275483532,-0.027,0.018,0.0,0.48
2025-07-30 17:15:22.297769,1753866922.297769,-0.7050513029098511,-0.3862269222736358,9.843674659729004,-0.0531428530812263,0.0318204946815967,0.1276830285787582,0.492039144039154,0.08297660946846,0.5737932324409485,1.822678789801481,-7.182283330079548,312.642659856376,-0.0616722270782293,0.0121058191974929,-0.027,0.018,0.0,0.48
2025-07-30 17:15:22.307179,1753866922.307179,-0.7054729461669922,-0.3797343075275421,9.844079971313477,-0.0574090965092182,0.036163467913866,0.1293013989925384,0.4926215708255768,0.0836028903722763,0.5738544464111328,1.7911386503145337,-7.16907421180875,312.7060097092882,-0.0618953910091925,0.0125480199861858,-0.027,0.018,0.0,0.48
2025-07-30 17:15:22.317307,1753866922.317307,-0.7008739113807678,-0.377150684595108,9.81867504119873,-0.0584861598908901,0.0323430448770523,0.1288199424743652,0.4916964173316955,0.0844849050045013,0.573972761631012,1.7571915254182755,-7.154857039817681,312.7741941055512,-0.0621355856931723,0.0130239673233622,-0.027,0.018,0.0,0.48
2025-07-30 17:15:22.327692,1753866922.327692,-0.6862319707870483,-0.3808108270168304,9.81015968322754,-0.0560803115367889,0.0330620817840099,0.1271882951259613,0.4902262687683105,0.0855251550674438,0.5753763914108276,1.7223829362885392,-7.140279083659796,312.844108793226,-0.0623818757130591,0.0135119926085017,-0.027,0.018,0.0,0.48
2025-07-30 17:15:22.337745,1753866922.337745,-0.7072829008102417,-0.3607129752635956,9.815750122070312,-0.0547904483973979,0.0331905037164688,0.1245379149913787,0.4893426895141601,0.0854648873209953,0.5756999850273132,1.6886875379540116,-7.126167335613577,312.9117875848557,-0.0626202892923908,0.0139844106751694,-0.027,0.018,0.0,0.48
2025-07-30 17:15:22.346648,1753866922.346648,-0.7035220265388489,-0.334048718214035,9.817605018615724,-0.0529855377972126,0.0347727723419666,0.1259484887123108,0.4893728494644165,0.0859773904085159,0.5767011642456055,1.658846352975761,-7.113669745300712,312.97172500776657,-0.062831432180554,0.0144027916889368,-0.027,0.018,0.0,0.48
2025-07-30 17:15:22.357840,1753866922.35784,-0.6903539896011353,-0.3729908764362335,9.82071018218994,-0.0541373379528522,0.0331115052103996,0.124362051486969,0.4885122776031494,0.0861576050519943,0.5776805281639099,1.621332702222347,-7.097958900084686,313.0470729388818,-0.063096862007533,0.0149287426270034,-0.027,0.018,0.0,0.48
2025-07-30 17:15:22.370447,1753866922.370447,-0.7177993655204773,-0.3480352163314819,9.826356887817385,-0.053152710199356,0.0345274619758129,0.1224673092365264,0.4885380268096924,0.0852468758821487,0.5775754451751709,1.578283813023731,-7.077353706742595,313.1192544634416,-0.0637478535013456,0.0153894799132397,-0.027,0.018,0.0,0.48
2025-07-30 17:15:22.377971,1753866922.377971,-0.706833004951477,-0.3369527757167816,9.82167911529541,-0.0555145777761936,0.0385290831327438,0.1241422444581985,0.4878337383270263,0.0862962007522583,0.5761375427246094,1.5524181661676966,-7.064420883502678,313.1595617634861,-0.0642132643137239,0.0156356908032418,-0.027,0.018,0.0,0.48
2025-07-30 17:15:22.387202,1753866922.387202,-0.6998769640922546,-0.3527858853340149,9.80867862701416,-0.0581251569092273,0.0349290408194065,0.1210499107837677,0.4874351024627685,0.0882027447223663,0.5754210352897644,1.5206840222114273,-7.048553811755321,313.2090141382603,-0.0647842693151074,0.0159377629636798,-0.027,0.018,0.0,0.48
2025-07-30 17:15:22.397425,1753866922.397425,-0.6921822428703308,-0.3586686551570892,9.807619094848633,-0.0558403991162776,0.0366260632872581,0.1239719986915588,0.4865844845771789,0.0875037834048271,0.5759850144386292,1.4855402486550215,-7.03098192523269,313.2637798525422,-0.0654166251302146,0.0162722908343152,-0.027,0.018,0.0,0.48
2025-07-30 17:15:22.407245,1753866922.407245,-0.6699199676513672,-0.372938334941864,9.80475616455078,-0.0557005703449249,0.0330896042287349,0.1216724812984466,0.4865745306015014,0.0883829593658447,0.5764003992080688,1.4517816371236714,-7.0141026197125145,313.3163870226491,-0.0660240571772466,0.0165936335726828,-0.027,0.018,0.0,0.48
2025-07-30 17:15:22.417569,1753866922.417569,-0.6703670620918274,-0.3523797690868377,9.818092346191406,-0.0499538592994213,0.0328705534338951,0.1223790049552917,0.4859333634376526,0.0893060937523841,0.5762039422988892,1.4162903436272518,-6.996356973222405,313.3716942888424,-0.0666626660560602,0.0169314694291652,-0.027,0.018,0.0,0.48
2025-07-30 17:15:22.427151,1753866922.427151,-0.6818810701370239,-0.344186782836914,9.815791130065918,-0.0524376407265663,0.0310369543731212,0.119868017733097,0.4847414493560791,0.089539811015129,0.5765670537948608,1.3833497153509342,-6.979886659323797,313.42302676836545,-0.0672553798069152,0.0172450259178269,-0.027,0.018,0.0,0.48
2025-07-30 17:15:22.437563,1753866922.437563,-0.6817963719367981,-0.3482744693756103,9.810018539428713,-0.0539511255919933,0.0333213508129119,0.1178400218486785,0.4841748178005218,0.0888819694519043,0.576816201210022,1.3475559811520026,-6.961989792484631,313.47880533799105,-0.0678994306208885,0.0175857406582186,-0.027,0.018,0.0,0.48
2025-07-30 17:15:22.446994,1753866922.446994,-0.6898598670959473,-0.3433935940265655,9.787039756774902,-0.0542870573699474,0.034605786204338,0.1170672699809074,0.4838019013404846,0.0898777842521667,0.575994610786438,1.315134173918206,-6.945778889103511,313.5293293213823,-0.0684828090195591,0.01789435857367,-0.026,0.012,0.0,0.48
2025-07-30 17:15:22.457112,1753866922.457112,-0.6753486394882202,-0.3354665637016296,9.77386474609375,-0.0506046190857887,0.0355756692588329,0.1127071306109428,0.4837833344936371,0.0910605415701866,0.5764450430870056,1.2803510342618147,-6.928387319528265,313.5835330478316,-0.0691086758062917,0.0182254536288037,-0.026,0.012,0.0,0.48
2025-07-30 17:15:22.467231,1753866922.467231,-0.6844916939735413,-0.3319484293460846,9.769488334655762,-0.0486040972173213,0.0351053215563297,0.1070283502340316,0.4835367202758789,0.091803953051567,0.5781063437461853,1.2455646161154232,-6.910994110708043,313.63774188326124,-0.0697346015841914,0.0185565798913511,-0.026,0.012,0.0,0.48
2025-07-30 17:15:22.477761,1753866922.477761,-0.6796188354492188,-0.329399049282074,9.777643203735352,-0.0467249006032943,0.0410499610006809,0.1082788631319999,0.4829614758491516,0.0914496779441833,0.5783905386924744,1.2093651687789753,-6.89289438730307,313.6941526891985,-0.0703859525550861,0.0189011565491821,-0.026,0.012,0.0,0.48
2025-07-30 17:15:22.487312,1753866922.487312,-0.6775162816047668,-0.3335082530975342,9.78472900390625,-0.0480210743844509,0.0435349941253662,0.1062324419617652,0.482927143573761,0.0926639884710311,0.5785306096076965,1.176531091427662,-6.876477348866188,313.7453191268619,-0.0709767490930122,0.0192136987969001,-0.026,0.012,0.0,0.48
2025-07-30 17:15:22.495746,1753866922.495746,-0.6762324571609497,-0.3389494717121124,9.79213523864746,-0.0498062819242477,0.0416772104799747,0.1011347249150276,0.4828152656555176,0.0934604331851005,0.5767385363578796,1.1475377651115024,-6.861980685918954,313.79050039410873,-0.0714984374787486,0.0194896815595256,-0.026,0.012,0.0,0.48
2025-07-30 17:15:22.507445,1753866922.507445,-0.6808992028236389,-0.3193938434123993,9.78956699371338,-0.0475133955478668,0.0419674515724182,0.1010173335671424,0.4819632768630981,0.0933370739221572,0.5776828527450562,1.1073188890348935,-6.84187124817313,313.8531748098887,-0.0722221116204369,0.0198725185064932,-0.026,0.012,0.0,0.48
2025-07-30 17:15:22.517534,1753866922.517534,-0.6693100333213806,-0.3080167770385742,9.777765274047852,-0.0484505295753479,0.0426197759807109,0.0967666581273078,0.4805202484130859,0.092890977859497,0.578601062297821,1.0726357433235063,-6.824529675569659,313.9072227124391,-0.0728461791765747,0.0202026617355106,-0.026,0.012,0.0,0.48
2025-07-30 17:15:22.527860,1753866922.52786,-0.6522731184959412,-0.3137793838977813,9.781423568725586,-0.0478810258209705,0.045433409512043,0.096117116510868,0.4813694953918457,0.0941655486822128,0.5784174799919128,1.037137892847087,-6.8067807505895965,313.9625401965929,-0.0734849060377225,0.0205405600068203,-0.026,0.012,0.0,0.48
2025-07-30 17:15:22.537757,1753866922.537757,-0.6568933129310608,-0.312313973903656,9.781115531921388,-0.0468170456588268,0.0482427179813385,0.0943626910448074,0.48076993227005,0.0941464006900787,0.5784263610839844,1.0031145432482258,-6.789769076037591,314.0155599168587,-0.0740971016214931,0.0208644227438403,-0.026,0.012,0.0,0.48
2025-07-30 17:15:22.547109,1753866922.547109,-0.6749026775360107,-0.3082715570926666,9.781495094299316,-0.0437731146812438,0.0447515174746513,0.0926367118954658,0.4804930984973907,0.0943773239850997,0.5790865421295166,0.9709648506844402,-6.7736942299894976,314.0656598548854,-0.0746755837532992,0.0211704504439586,-0.026,0.012,0.0,0.48
2025-07-30 17:15:22.557192,1753866922.557192,-0.6753214001655579,-0.2940664887428283,9.78668212890625,-0.044469304382801,0.04498777911067,0.0889843925833702,0.4804601669311523,0.0950160175561904,0.5788462162017822,0.9363013759130536,-6.756362492855884,314.11967710355395,-0.0752992973624348,0.021500406428494,-0.026,0.012,0.0,0.48
2025-07-30 17:15:22.570100,1753866922.5701,-0.6683257222175598,-0.2782542109489441,9.781344413757324,-0.0450496673583984,0.0438408218324184,0.0885159224271774,0.4795422255992889,0.0961700528860092,0.5793099403381348,0.9003241486714129,-6.733920852930735,314.1702516709438,-0.0756598578824365,0.0216355190356268,-0.026,0.012,0.0,0.48
2025-07-30 17:15:22.577505,1753866922.577505,-0.6665555238723755,-0.2736477851867676,9.760043144226074,-0.0446933396160602,0.0465421006083488,0.0864005982875824,0.4783015251159668,0.0970740467309951,0.5791223049163818,0.8818680735844556,-6.720980386260644,314.19443549331834,-0.0757528506844551,0.0216383354898047,-0.026,0.012,0.0,0.48
2025-07-30 17:15:22.588077,1753866922.588077,-0.663114070892334,-0.2724241316318512,9.750213623046877,-0.0414548590779304,0.0456377267837524,0.0853666141629219,0.4786085188388824,0.0973556339740753,0.5794633030891418,0.855518890368452,-6.702505671263856,314.2289620090378,-0.075885613710538,0.0216423564567113,-0.026,0.012,0.0,0.48
2025-07-30 17:15:22.597223,1753866922.597223,-0.6589488387107849,-0.2761915922164917,9.742058753967283,-0.0395096875727176,0.0466801822185516,0.082648292183876,0.478687435388565,0.097197875380516,0.5810151100158691,0.8327237747365654,-6.68652288875536,314.258831470711,-0.0760004692074386,0.0216458350619052,-0.026,0.012,0.0,0.48
2025-07-30 17:15:22.607184,1753866922.607184,-0.6675909161567688,-0.2600125968456268,9.758766174316406,-0.0343850590288639,0.0429549738764762,0.0812334939837455,0.4786702692508697,0.0978050380945205,0.5810851454734802,0.8078975935633794,-6.66911602578457,314.29136232859395,-0.0761255584336061,0.0216496236139866,-0.026,0.012,0.0,0.48
2025-07-30 17:15:22.616854,1753866922.616854,-0.6648588180541992,-0.2609231173992157,9.765863418579102,-0.0377410463988781,0.04419606924057,0.0771002322435379,0.4780232906341553,0.0978805571794509,0.5801628828048706,0.7837963684932904,-6.652217465377851,314.322943244003,-0.076246994895085,0.021653301535523,-0.026,0.012,0.0,0.48
2025-07-30 17:15:22.627565,1753866922.627565,-0.6790207028388977,-0.2683779299259186,9.766195297241213,-0.0373574197292327,0.044494017958641,0.0782472267746925,0.477138340473175,0.0983958765864372,0.5808669328689575,0.7571007513362167,-6.63349984841807,314.3579237076423,-0.0763815034636379,0.0216573753693213,-0.026,0.012,0.0,0.48
2025-07-30 17:15:22.637065,1753866922.637065,-0.6599582433700562,-0.2698221206665039,9.75598430633545,-0.0368075668811798,0.0467114113271236,0.0706818327307701,0.4764196872711181,0.0989011749625206,0.578738272190094,0.7334232096280193,-6.616898353362321,314.3889494517531,-0.0765008051536225,0.0216609886354654,-0.026,0.012,0.0,0.48
2025-07-30 17:15:22.647498,1753866922.647498,-0.6521674990653992,-0.2641817033290863,9.766169548034668,-0.0354543700814247,0.0466913096606731,0.0699534267187118,0.4766807556152344,0.0987018048763275,0.5777677893638611,0.7074204603530859,-6.598666540328529,314.42302201955266,-0.0766318226372354,0.0216649567354805,-0.025,0.01,0.0,0.47
2025-07-30 17:15:22.657217,1753866922.657217,-0.6387279629707336,-0.2591505348682403,9.75499153137207,-0.0357279106974601,0.0455738566815853,0.068994753062725,0.4752994775772095,0.0987051278352737,0.5803077816963196,0.68319682466231,-6.581682151783943,314.4547633350843,-0.0767538758770142,0.0216686533372565,-0.025,0.01,0.0,0.47
2025-07-30 17:15:22.667357,1753866922.667357,-0.6452516913414001,-0.2380187660455703,9.7642822265625,-0.0362974107265472,0.0421643406152725,0.0675961002707481,0.4747286736965179,0.0997740775346756,0.5816981792449951,0.6579243795272995,-6.563962391087236,314.48787895263763,-0.0768812136493137,0.0216725099905996,-0.025,0.01,0.0,0.47
2025-07-30 17:15:22.676928,1753866922.676928,-0.6427459120750427,-0.2221459448337555,9.794509887695312,-0.035530149936676,0.0396031774580478,0.0698340162634849,0.4749409556388855,0.1002449914813041,0.5801769495010376,0.6340697583775262,-6.547236736880592,314.5191367318772,-0.0770014075719846,0.0216761502796145,-0.025,0.01,0.0,0.47
2025-07-30 17:15:22.687193,1753866922.687193,-0.6354705691337585,-0.243312120437622,9.791287422180176,-0.0321118235588073,0.0360255874693393,0.0653971135616302,0.4749453663825989,0.1016682162880897,0.5812831521034241,0.6084859386539725,-6.529298656066202,314.5526603575095,-0.0771303142366585,0.0216800544496835,-0.025,0.01,0.0,0.47
2025-07-30 17:15:22.697498,1753866922.697498,-0.6407244205474854,-0.2451765835285186,9.78891658782959,-0.028113892301917,0.0363729670643806,0.0639501065015792,0.4746054112911224,0.1020253151655197,0.5807018876075745,0.5828016946833504,-6.511290162847444,314.58631557353374,-0.0772597268990639,0.0216839739448034,-0.025,0.01,0.0,0.47
2025-07-30 17:15:22.707653,1753866922.707653,-0.639412522315979,-0.2304173707962036,9.782219886779783,-0.0281308256089687,0.0325635373592376,0.0635588243603706,0.4742510914802551,0.1018383651971817,0.5794298648834229,0.557491813290557,-6.4935441537396414,314.61948024549343,-0.0773872532977367,0.0216878363110354,-0.025,0.01,0.0,0.47
2025-07-30 17:15:22.718085,1753866922.718085,-0.6259472370147705,-0.2279828041791916,9.754778861999512,-0.0243645273149013,0.0315280817449092,0.0641622617840766,0.4745838642120361,0.1012092381715774,0.5796657204627991,0.5314914409208796,-6.475314007271634,314.65354969872755,-0.0775182588050719,0.0216918040483273,-0.025,0.01,0.0,0.47
2025-07-30 17:15:22.727789,1753866922.727789,-0.618446946144104,-0.2403993606567382,9.755352973937988,-0.0263405032455921,0.0296210143715143,0.0626411885023117,0.4745924472808838,0.1009056568145752,0.5796307325363159,0.5073058357142006,-6.4583562837795885,314.6852411812114,-0.077640120424408,0.0216954948465337,-0.025,0.01,0.0,0.47
2025-07-30 17:15:22.737328,1753866922.737328,-0.6289793252944946,-0.2372755259275436,9.752341270446776,-0.0253671593964099,0.0285085160285234,0.059267085045576,0.4730862975120544,0.1005857735872268,0.5793074369430542,0.4835308408905051,-6.441686459526704,314.71639462250715,-0.077759913141777,0.0216991229843249,-0.025,0.01,0.0,0.47
2025-07-30 17:15:22.747780,1753866922.74778,-0.6150870323181152,-0.2281227856874466,9.775049209594728,-0.0215284172445535,0.0256955418735742,0.0570517405867576,0.4724767804145813,0.1014458239078521,0.5797317624092102,0.4574805535104504,-6.423421315177234,314.75052948161647,-0.0778911701509432,0.0217030983388019,-0.025,0.01,0.0,0.47
2025-07-30 17:15:22.757730,1753866922.75773,-0.6064355373382568,-0.2337410300970077,9.784815788269045,-0.0216140709817409,0.0252822507172822,0.062172096222639,0.4730649590492248,0.1029197350144386,0.5805187225341797,0.4326817067477091,-6.406033617712958,314.78302452199625,-0.0780161216499175,0.0217068827195677,-0.025,0.01,0.0,0.47
2025-07-30 17:15:22.770278,1753866922.770278,-0.6128999590873718,-0.2468031346797943,9.77592945098877,-0.0202557202428579,0.0224788077175617,0.0579165406525135,0.4739543199539184,0.1038276255130767,0.5809208750724792,0.42398877,-6.394747484632287,314.8182942595007,-0.0778196799412463,0.022120190411031,-0.025,0.01,0.0,0.47
2025-07-30 17:15:22.777340,1753866922.77734,-0.6059343218803406,-0.245509460568428,9.76609992980957,-0.017803544178605,0.02501817420125,0.0585361793637275,0.4736473560333252,0.103546030819416,0.5805798768997192,0.42398877,-6.39070127667482,314.83690681624626,-0.07763242259107,0.0224413104038165,-0.025,0.01,0.0,0.47
