time,timestamp,acce_x,acce_y,acce_z,gyro_x,gyro_y,gyro_z,magX,magY,magZ,roll,pitch,yaw,gt_px,gt_py,dvl_vx,dvl_vy,dvl_vz,depth
2025-07-30 17:08:36.087200,1753866516.0872,-0.3952946960926056,0.1604352444410324,9.789989471435549,-0.0114775961264967,-0.0210572220385074,-0.0043127331882715,0.5157536864280701,-0.1653328239917755,0.5677827596664429,-3.420520262572011,-6.263549042925088,-7.835153460369369,0.0,0.0,-0.013,-0.016,0.0,0.22
2025-07-30 17:08:36.092060,1753866516.09206,-0.386044979095459,0.1642048358917236,9.801846504211426,-0.008301306515932,-0.023951044306159,-0.0033591496758162,0.5166661143302917,-0.1641844362020492,0.5688406825065613,-3.4031160907947444,-6.272877678851898,-7.802015917402656,0.0001061890615374,-0.0005279904512266,-0.013,-0.016,0.0,0.22
2025-07-30 17:08:36.101861,1753866516.101861,-0.4054393768310547,0.1703702062368393,9.812424659729004,-0.0057041752152144,-0.0260777808725833,0.0039253011345863,0.5172986388206482,-0.164803996682167,0.5690721273422241,-3.3680191718141264,-6.291689627131482,-7.735191383859586,0.0003203278862459,-0.0015927258679068,-0.013,-0.016,0.0,0.22
2025-07-30 17:08:36.112443,1753866516.112443,-0.3902585506439209,0.1915613710880279,9.804062843322754,-0.0049832784570753,-0.0295210871845483,0.0019273112993687,0.5172426700592041,-0.1644057780504226,0.5681760907173157,-3.330125291011467,-6.312000746924248,-7.663041435022961,0.000551531972941,-0.0027423127301704,-0.013,-0.016,0.0,0.22
2025-07-30 17:08:36.122536,1753866516.122536,-0.3961855471134186,0.186381384730339,9.775259017944336,-0.0060367253609001,-0.0294059738516807,0.0073324758559465,0.518378734588623,-0.1642412841320037,0.5669169425964355,-3.293982499554658,-6.331373282842309,-7.594225560291065,0.0007720520387769,-0.0038387767856906,-0.013,-0.016,0.0,0.22
2025-07-30 17:08:36.132103,1753866516.132103,-0.3880214691162109,0.1943951696157455,9.785466194152832,-0.003287409665063,-0.0281631834805011,0.0096236141398549,0.5186640620231628,-0.1647757589817047,0.5662217140197754,-3.259723132328443,-6.349736303388549,-7.5289957252836786,0.000981080661407,-0.0048781033903691,-0.013,-0.016,0.0,0.22
2025-07-30 17:08:36.142563,1753866516.142563,-0.3857002258300781,0.2055265754461288,9.79399299621582,-0.0001346660865237,-0.0308412611484527,0.0139330644160509,0.5181061029434204,-0.1657371819019317,0.5664358735084534,-3.2222655297587086,-6.369813578052122,-7.457676450200125,0.001209622858946,-0.0060144548775738,-0.013,-0.016,0.0,0.22
2025-07-30 17:08:36.152400,1753866516.1524,-0.391835868358612,0.2038567066192627,9.809910774230955,-0.0030023222789168,-0.0313423350453376,0.0205591600388288,0.518185019493103,-0.165894940495491,0.5679876804351807,-3.187039690987148,-6.388694627338572,-7.390606453375796,0.0014245482692955,-0.0070831013346334,-0.013,-0.016,0.0,0.22
2025-07-30 17:08:36.162582,1753866516.162582,-0.4019238948822021,0.1966656446456909,9.80920696258545,-0.0028418768197298,-0.0279695745557546,0.0212310757488012,0.5172942280769348,-0.1662272363901138,0.5679659247398376,-3.1505784420335075,-6.408237856472266,-7.321184235571707,0.0016470113579401,-0.0081892264369187,-0.012,-0.016,0.004,0.22
2025-07-30 17:08:36.172713,1753866516.172713,-0.3949436843395233,0.2109981179237365,9.810980796813965,-0.0010084147797897,-0.0300060845911502,0.0223621819168329,0.5175380706787109,-0.1658194363117218,0.5670654773712158,-3.1142990468247063,-6.42768361200025,-7.252108267296776,0.0018683648920049,-0.0092898346411853,-0.012,-0.016,0.004,0.22
2025-07-30 17:08:36.182091,1753866516.182091,-0.3835374116897583,0.2163646966218948,9.803547859191896,0.00041159891407,-0.0332970321178436,0.0283013731241226,0.5174978971481323,-0.1654527634382248,0.5664797425270081,-3.0807167219443032,-6.445683737854807,-7.188167520912046,0.0020732626377256,-0.0103086218086393,-0.012,-0.016,0.004,0.22
2025-07-30 17:08:36.192193,1753866516.192193,-0.41165292263031,0.2283439487218856,9.783352851867676,0.001932329381816,-0.032699566334486,0.0316633880138397,0.5184374451637268,-0.16579070687294,0.5670521855354309,-3.0445414870963963,-6.465073663430224,-7.11928987396368,0.0022939806522659,-0.0114060700994867,-0.012,-0.016,0.004,0.22
2025-07-30 17:08:36.202410,1753866516.20241,-0.3738068640232086,0.2143570482730865,9.767284393310549,0.0015502006281167,-0.0313074477016925,0.0347214676439762,0.5187543630599976,-0.1663883030414581,0.5669776797294617,-3.0079547334456125,-6.484684163080536,-7.049628695216924,0.0025172094898457,-0.0125160026384328,-0.012,-0.016,0.004,0.22
2025-07-30 17:08:36.212516,1753866516.212516,-0.3868903219699859,0.2481733709573745,9.806812286376951,0.0041290381923317,-0.0347745530307292,0.0352992862462997,0.5178364515304565,-0.1652342677116394,0.5674414038658142,-2.971764984449057,-6.504081868239507,-6.980723413329599,0.0027380160603854,-0.0136138912450845,-0.012,-0.016,0.004,0.22
2025-07-30 17:08:36.221447,1753866516.221447,-0.4059689044952392,0.2521741092205047,9.826523780822754,0.0025705695152282,-0.0295349601656198,0.0379157997667789,0.5172354578971863,-0.1646777987480163,0.5678306818008423,-2.9397834847873128,-6.521223951790274,-6.919830638152263,0.0029331466002986,-0.0145841141694161,-0.012,-0.016,0.004,0.22
2025-07-30 17:08:36.232524,1753866516.232524,-0.4110596477985382,0.2540725469589233,9.823492050170898,0.0037776192184537,-0.0337831638753414,0.0404481366276741,0.5175754427909851,-0.1650349050760269,0.5684119462966919,-2.900117170302553,-6.542485096021798,-6.844305975594821,0.0031751649372636,-0.0157874713616649,-0.012,-0.016,0.004,0.22
2025-07-30 17:08:36.242546,1753866516.242546,-0.4145792722702026,0.2386667132377624,9.813576698303224,0.0064027155749499,-0.0310277976095676,0.0454162284731864,0.5173014402389526,-0.1659552156925201,0.568311333656311,-2.86422794956038,-6.561721718038938,-6.775972899502165,0.0033941378776997,-0.0168762428410744,-0.012,-0.016,0.004,0.22
2025-07-30 17:08:36.251940,1753866516.25194,-0.4086716175079345,0.2404702603816986,9.79935359954834,0.0061539481393992,-0.0310260355472564,0.049639742821455,0.517325758934021,-0.1662903428077697,0.5685866475105286,-2.83058842185883,-6.579752504605151,-6.711923238946284,0.0035993846382411,-0.017896765370816,-0.012,-0.016,0.004,0.22
2025-07-30 17:08:36.262412,1753866516.262412,-0.4315440952777862,0.253529280424118,9.793044090270996,0.0034659134689718,-0.0321050956845283,0.0509713888168334,0.5175638198852539,-0.1667301654815673,0.5669603943824768,-2.793088130616598,-6.5998526603968255,-6.640522684630511,0.0038281872946017,-0.0190344119045039,-0.012,-0.016,0.004,0.22
2025-07-30 17:08:36.272413,1753866516.272413,-0.4378863275051117,0.2568620145320892,9.781567573547363,0.0071968105621635,-0.0340314172208309,0.0535755008459091,0.5175394415855408,-0.1663950383663177,0.5666850805282593,-2.7572748957114706,-6.619048554005945,-6.5723342855711735,0.0040466966183355,-0.0201208782011732,-0.011,-0.019,0.008,0.22
2025-07-30 17:08:36.282364,1753866516.282364,-0.4325693547725677,0.2309392839670181,9.797290802001951,0.0065060127526521,-0.0340640656650066,0.0570271275937557,0.5178622007369995,-0.1661449968814849,0.56733638048172,-2.721640953230833,-6.638148346877041,-6.50448725928706,0.0042641120150188,-0.0212019053026129,-0.011,-0.019,0.008,0.22
2025-07-30 17:08:36.292614,1753866516.292614,-0.4504455626010895,0.2319836020469665,9.819353103637695,0.0070023532025516,-0.0327060669660568,0.0608679242432117,0.5174978971481323,-0.1654527634382248,0.5664797425270081,-2.684935525070506,-6.657822456063474,-6.4346001242747946,0.0044880649281225,-0.0223154380707824,-0.011,-0.019,0.008,0.22
2025-07-30 17:08:36.302499,1753866516.302499,-0.463224709033966,0.2474493831396103,9.806605339050291,0.0043595898896455,-0.0334585793316364,0.0619795508682727,0.5163303017616272,-0.1655541509389877,0.5671181678771973,-2.649537224062056,-6.67679594510745,-6.367201759352426,0.0047040425921109,-0.0233893165156345,-0.011,-0.019,0.008,0.22
2025-07-30 17:08:36.312294,1753866516.312294,-0.4688855409622192,0.2488731443881988,9.79476833343506,0.0063056983053684,-0.0339024141430854,0.0679282024502754,0.5172125101089478,-0.1649182736873626,0.5671749114990234,-2.6144616494176867,-6.695596452822984,-6.30041786542543,0.0049180511874087,-0.024453404409073,-0.011,-0.019,0.008,0.22
2025-07-30 17:08:36.322650,1753866516.32265,-0.4785279333591461,0.2365377247333526,9.782845497131348,0.0069094449281692,-0.036250714212656,0.0691863372921943,0.5181204676628113,-0.1651931405067443,0.5671266317367554,-2.577377145845581,-6.715473746426954,-6.229808970831272,0.0051443169748475,-0.025578437190014,-0.011,-0.019,0.008,0.22
2025-07-30 17:08:36.331722,1753866516.331722,-0.5012283325195312,0.2392962127923965,9.78425121307373,0.0109008243307471,-0.0400866866111755,0.0706571266055107,0.5184761881828308,-0.1655817925930023,0.5680182576179504,-2.544890212301466,-6.732886742534438,-6.167953849544716,0.0053425313472077,-0.0265639934647074,-0.011,-0.019,0.008,0.22
2025-07-30 17:08:36.342682,1753866516.342682,-0.4993449449539184,0.2359014302492141,9.756120681762695,0.0125027010217309,-0.0399418398737907,0.072273164987564,0.5175208449363708,-0.1652122884988784,0.5671355128288269,-2.5056431005806323,-6.753923194088008,-6.093227349047453,0.0055819919785453,-0.0277546333004905,-0.011,-0.019,0.008,0.22
2025-07-30 17:08:36.352866,1753866516.352866,-0.5143753290176392,0.2365220636129379,9.75342845916748,0.0130910957232117,-0.0400829650461673,0.0759898871183395,0.5184202194213867,-0.1651835739612579,0.567122220993042,-2.469174167665942,-6.773470541824761,-6.023790500981562,0.0058045019497777,-0.0288609915111428,-0.011,-0.019,0.008,0.22
2025-07-30 17:08:36.362896,1753866516.362896,-0.5101510882377625,0.2339479476213455,9.751715660095217,0.0138166649267077,-0.0420007780194282,0.0808244198560714,0.5184374451637268,-0.16579070687294,0.5670521855354309,-2.433256772399921,-6.792722265386447,-5.95540378059566,0.006023646793036,-0.0299506177212313,-0.011,-0.019,0.008,0.22
2025-07-30 17:08:36.372591,1753866516.372591,-0.4972029328346252,0.2234925478696823,9.752288818359377,0.0124186361208558,-0.0461916252970695,0.0812416598200798,0.5187759399414062,-0.1655722260475158,0.5680138468742371,-2.3985389288310817,-6.811331029248493,-5.889301006634483,0.0062354727434093,-0.0310038531251401,-0.011,-0.019,0.008,0.22
2025-07-30 17:08:36.382518,1753866516.382518,-0.5146932005882263,0.2529993057250976,9.774194717407228,0.0140738291665911,-0.0463323071599006,0.0856944322586059,0.5190915465354919,-0.1655941903591156,0.5683197975158691,-2.3629903636954395,-6.830385059863388,-5.821616538814766,0.0064523672224495,-0.0320822901336132,-0.011,-0.019,0.008,0.22
2025-07-30 17:08:36.391831,1753866516.391831,-0.5031987428665161,0.2447031885385513,9.75482177734375,0.01609543338418,-0.0434575751423835,0.0933885499835014,0.5181677937507629,-0.1652877926826477,0.5680577158927917,-2.329641118966873,-6.848260254758513,-5.758119577037832,0.0066558428630046,-0.0330940063472686,-0.011,-0.019,0.008,0.22
2025-07-30 17:08:36.402504,1753866516.402504,-0.5078819394111633,0.2389889508485794,9.749713897705078,0.0210979580879211,-0.0451445169746875,0.0988694503903389,0.5178350210189819,-0.1646586656570434,0.5678218007087708,-2.2914210967063315,-6.868746186369972,-5.6853486548672265,0.0068890368550962,-0.0342534873646643,-0.011,-0.019,0.008,0.22
2025-07-30 17:08:36.412474,1753866516.412474,-0.519554615020752,0.2440552860498428,9.74534511566162,0.0183369610458612,-0.0503271073102951,0.102820836007595,0.5187114477157593,-0.164870411157608,0.5671527981758118,-2.255718852349698,-6.887882589046028,-5.617371581811582,0.0071068689858939,-0.0353365865404772,-0.011,-0.019,0.008,0.22
2025-07-30 17:08:36.421896,1753866516.421896,-0.5256347060203552,0.2270306944847107,9.743215560913086,0.0219316594302654,-0.0493210367858409,0.1038326099514961,0.518097460269928,-0.1654336154460907,0.5664709210395813,-2.221978579381054,-6.90596737507456,-5.55313010226773,0.0073127304292542,-0.0363601653799192,-0.011,-0.019,0.008,0.22
2025-07-30 17:08:36.431934,1753866516.431934,-0.539574146270752,0.2306827753782272,9.74325466156006,0.0208389069885015,-0.0520216412842273,0.1054751276969909,0.5174649357795715,-0.1648140549659729,0.5662394165992737,-2.186032155817734,-6.925234657803356,-5.484688112003937,0.0075320523845111,-0.0374506722216164,-0.011,-0.019,0.008,0.22
2025-07-30 17:08:36.442516,1753866516.442516,-0.5423402786254883,0.2119966149330139,9.739402770996094,0.0237102787941694,-0.0559085234999656,0.1136597841978073,0.5186740756034851,-0.1656549423933029,0.5658063292503357,-2.148138275015074,-6.945545777596122,-5.412538163167312,0.0077632564712062,-0.03860025908388,-0.011,-0.019,0.008,0.22
2025-07-30 17:08:36.452163,1753866516.452163,-0.5648335814476013,0.2315202057361602,9.747377395629885,0.022182984277606,-0.0501813814043998,0.1184189245104789,0.5193296074867249,-0.1660340279340744,0.5666934847831726,-2.113592893683125,-6.96406210170064,-5.346763757304217,0.0079740301679405,-0.0396482624999964,-0.011,-0.019,0.008,0.22
2025-07-30 17:08:36.461809,1753866516.461809,-0.5556325316429138,0.2346492409706115,9.737208366394045,0.0205392949283123,-0.0533166863024234,0.1197185143828392,0.5192807912826538,-0.1653637737035751,0.5661428570747375,-2.079050927444976,-6.98257659531491,-5.2809958537797,0.0081847830279691,-0.0406961623123942,-0.011,-0.019,0.008,0.22
2025-07-30 17:08:36.472561,1753866516.472561,-0.5555147528648376,0.2323887795209884,9.724326133728027,0.0271029118448495,-0.0573085136711597,0.120912104845047,0.5198230743408203,-0.1643708050251007,0.5656183362007141,-2.0405483061725005,-7.003213999994398,-5.207686863091951,0.0084197012574592,-0.0418642165375091,-0.011,-0.019,0.008,0.22
2025-07-30 17:08:36.481971,1753866516.481971,-0.5691080093383789,0.2374443262815475,9.729148864746094,0.030126491561532,-0.0530503541231155,0.1228991746902465,0.5191503763198853,-0.1633845716714859,0.5648011565208435,-2.006850721876354,-7.021275904894829,-5.143526662780289,0.008625302241998,-0.0428865003304679,-0.007,-0.023,0.009,0.23
2025-07-30 17:08:36.492617,1753866516.492617,-0.5768207311630249,0.2381607443094253,9.723742485046388,0.0310992076992988,-0.0541160739958286,0.1277632117271423,0.5188835859298706,-0.1640328466892242,0.5650458931922913,-1.968728029789107,-7.041709667534216,-5.070941057259091,0.0088579023879764,-0.0440430286418818,-0.007,-0.023,0.009,0.23
2025-07-30 17:08:36.502632,1753866516.502632,-0.5834680795669556,0.2439424395561218,9.733272552490234,0.0331099294126033,-0.0556584894657135,0.129602313041687,0.5192320942878723,-0.1646935194730758,0.5655921697616577,-1.9328644222504323,-7.060932560874496,-5.0026567487057605,0.0090767190531196,-0.0451310230934014,-0.007,-0.023,0.009,0.23
2025-07-30 17:08:36.512466,1753866516.512466,-0.5938562154769897,0.2482067793607711,9.733317375183104,0.0325269289314746,-0.0561879761517047,0.1286904215812683,0.5203911066055298,-0.1642885506153106,0.5649887323379517,-1.8976488287602715,-7.079808118690201,-4.935606258897167,0.0092915819533519,-0.0461993587393051,-0.007,-0.023,0.009,0.23
2025-07-30 17:08:36.521612,1753866516.521612,-0.5990296006202698,0.2576251029968261,9.740507125854492,0.0356445051729679,-0.0578809529542923,0.1324286162853241,0.5209648609161377,-0.1633586883544922,0.5650849342346191,-1.864897225446671,-7.097362977791912,-4.873247206371005,0.0094914111704056,-0.0471929443021948,-0.007,-0.023,0.009,0.23
2025-07-30 17:08:36.532812,1753866516.532812,-0.590405285358429,0.2405580580234527,9.723443031311035,0.0344437584280967,-0.0539293773472309,0.1328725218772888,0.520742654800415,-0.1629503965377807,0.5670216083526611,-1.8247895100882865,-7.118860712888,-4.796882116552638,0.0097361226515852,-0.0484096922750804,-0.007,-0.023,0.009,0.23
2025-07-30 17:08:36.542295,1753866516.542295,-0.6022140979766846,0.2402369678020477,9.726178169250488,0.0351883918046951,-0.0547078512609005,0.1321294158697128,0.5204456448554993,-0.1641111820936203,0.5662652254104614,-1.7908315248899045,-7.137062192669847,-4.732226112924579,0.0099433124349352,-0.0494398758515871,-0.007,-0.023,0.009,0.23
2025-07-30 17:08:36.552676,1753866516.552676,-0.5975066423416138,0.2442124783992767,9.706564903259276,0.0401343964040279,-0.0506939180195331,0.1346310377120971,0.5219129920005798,-0.1640002131462097,0.5656223297119141,-1.7536573751055538,-7.156987536642829,-4.6614465319427865,0.0101701251858993,-0.0505676282301429,-0.007,-0.023,0.009,0.23
2025-07-30 17:08:36.561889,1753866516.561889,-0.6091165542602539,0.2452172338962555,9.725546836853027,0.0402351804077625,-0.0543221309781074,0.1332299709320068,0.5227564573287964,-0.1635732799768448,0.5647130012512207,-1.7206658614525172,-7.174670987684468,-4.598630690131671,0.01037141818153,-0.0515684919542685,-0.007,-0.023,0.009,0.23
2025-07-30 17:08:36.571822,1753866516.571822,-0.6301127672195435,0.2448546737432479,9.72456169128418,0.0437946803867816,-0.0560644567012786,0.1358813494443893,0.5220205783843994,-0.1624608337879181,0.562654435634613,-1.685095951980626,-7.193736458863412,-4.530905582695837,0.010588442889981,-0.0526475764859833,-0.007,-0.023,0.009,0.23
2025-07-30 17:08:36.582548,1753866516.582548,-0.6387499570846558,0.2482348829507827,9.734448432922363,0.0448120944201946,-0.0497655794024467,0.132407933473587,0.521104097366333,-0.1618824154138565,0.562737762928009,-1.6466863920141954,-7.214323982683639,-4.457773780734286,0.0108227933192402,-0.0538128075097648,-0.007,-0.023,0.009,0.23
2025-07-30 17:08:36.592794,1753866516.592794,-0.6474166512489319,0.2237853854894638,9.721439361572266,0.0486437231302261,-0.0459623783826828,0.1317926496267318,0.5217667818069458,-0.1619894653558731,0.5639703273773193,-1.6099954780025176,-7.233990312286517,-4.387914280660965,0.0110466576763445,-0.05492589996213,-0.007,-0.023,0.009,0.23
2025-07-30 17:08:36.602800,1753866516.6028,-0.6492653489112854,0.2326832860708236,9.739435195922852,0.0476259551942348,-0.0493317395448684,0.1331852078437805,0.5211672186851501,-0.1620086133480072,0.5639791488647461,-1.5741643138549417,-7.25319581596944,-4.319691744324103,0.0112652763927833,-0.0560129101783223,-0.007,-0.023,0.009,0.23
2025-07-30 17:08:36.612685,1753866516.612685,-0.6585975885391235,0.2246699929237365,9.730607986450195,0.0526319481432437,-0.0480754524469375,0.1349932700395584,0.522324800491333,-0.161028042435646,0.5637561678886414,-1.5387660128464906,-7.272169305013417,-4.252293379401721,0.0114812540567718,-0.0570867886231743,-0.007,-0.023,0.009,0.23
2025-07-30 17:08:36.621815,1753866516.621815,-0.6696604490280151,0.2375673949718475,9.726983070373535,0.0517082922160625,-0.0477816686034202,0.130711942911148,0.5229014158248901,-0.1612493693828582,0.5630916357040405,-1.5060716123540372,-7.289693503403473,-4.190043241046681,0.0116807342590046,-0.0580786388237764,-0.007,-0.023,0.009,0.23
2025-07-30 17:08:36.632189,1753866516.632189,-0.6654473543167114,0.2196623235940933,9.731266975402832,0.0521428436040878,-0.0461423844099044,0.1302676945924759,0.5229171514511108,-0.1612809300422668,0.563401997089386,-1.468922221999735,-7.309605576322157,-4.119310802019584,0.0119073959438522,-0.0592056400753719,-0.007,-0.023,0.009,0.23
2025-07-30 17:08:36.642383,1753866516.642383,-0.6598303318023682,0.208297997713089,9.743379592895508,0.0549654960632324,-0.043298739939928,0.1303831189870834,0.5235009789466858,-0.1612302362918853,0.563082754611969,-1.4324174306001471,-7.329172144206514,-4.049805679398645,0.0121301247004947,-0.0603130861250702,-0.007,-0.023,0.009,0.23
2025-07-30 17:08:36.652525,1753866516.652525,-0.6648563146591187,0.198575273156166,9.738242149353027,0.0582202188670635,-0.0448065027594566,0.1292377859354019,0.5237691402435303,-0.1611575484275818,0.5624576210975647,-1.3960996155860983,-7.348638492749788,-3.980656559814733,0.012351712647499,-0.0614148598711717,-0.007,-0.023,0.009,0.23
2025-07-30 17:08:36.662525,1753866516.662525,-0.6730275750160217,0.2073756605386734,9.748818397521973,0.0570591762661933,-0.0421284399926662,0.1245458647608757,0.5231208801269531,-0.1605064421892166,0.5619157552719116,-1.3602897957747708,-7.36783255586866,-3.91247466309396,0.012570201134527,-0.0625012225641224,-0.007,-0.023,0.009,0.23
2025-07-30 17:08:36.672524,1753866516.672524,-0.6899656057357788,0.2007715404033661,9.749805450439451,0.0590181462466716,-0.0455394946038723,0.127802699804306,0.5240432024002075,-0.1602372527122497,0.5625582337379456,-1.324483391057243,-7.387024788497284,-3.844299268711765,0.0127886687848493,-0.0635874816533544,-0.007,-0.023,0.009,0.23
2025-07-30 17:08:36.682625,1753866516.682625,-0.6889289021492004,0.1941712796688079,9.747047424316406,0.0600386224687099,-0.0449188128113746,0.1244744658470153,0.5245940685272217,-0.1595478504896164,0.561998724937439,-1.288311571303136,-7.406412883582452,-3.775428124101978,0.0130093659626839,-0.0646848263404832,-0.005,-0.028,0.008,0.23
2025-07-30 17:08:36.692695,1753866516.692695,-0.6834737658500671,0.1900671273469925,9.749059677124023,0.0583648793399333,-0.0404080674052238,0.1219879016280174,0.5254690647125244,-0.1591840088367462,0.5617101192474365,-1.2522515958709726,-7.425741030111997,-3.706769931080544,0.013229380738406,-0.0657787780058258,-0.005,-0.028,0.008,0.23
2025-07-30 17:08:36.702654,1753866516.702654,-0.6890912055969238,0.2112991660833358,9.7570219039917,0.060471661388874,-0.0385753773152828,0.1242947801947593,0.525170624256134,-0.1597691923379898,0.5613341331481934,-1.216588625093037,-7.444856382150201,-3.638867634918526,0.013446973247088,-0.066860685738874,-0.005,-0.028,0.008,0.23
2025-07-30 17:08:36.711629,1753866516.711629,-0.6840081214904785,0.1948574930429458,9.760614395141602,0.057125523686409,-0.0385937392711639,0.1189817860722541,0.5260686278343201,-0.1591648608446121,0.561701238155365,-1.184449177343052,-7.462083125874943,-3.5776741265820533,0.0136430674846409,-0.0678357003351937,-0.005,-0.028,0.008,0.23
2025-07-30 17:08:36.722522,1753866516.722522,-0.6871002316474915,0.1861185431480407,9.76564598083496,0.0600095428526401,-0.0349900126457214,0.1191115379333496,0.5272276401519775,-0.1587599068880081,0.5610978603363037,-1.1454411221882053,-7.482991443111148,-3.503402789785099,0.0138810695465779,-0.0690190879106705,-0.005,-0.028,0.008,0.23
2025-07-30 17:08:36.732888,1753866516.732888,-0.6858288645744324,0.1756673157215118,9.756760597229004,0.0572726987302303,-0.0374976173043251,0.1221935227513313,0.5272362232208252,-0.1590634733438491,0.5610628128051758,-1.1083207601312015,-7.502887956862723,-3.4327256206358783,0.0141075541194269,-0.0701452085306574,-0.005,-0.028,0.008,0.23
2025-07-30 17:08:36.742114,1753866516.742114,-0.6841382384300232,0.1624212712049484,9.763102531433104,0.059289876371622,-0.0362741574645042,0.1228468716144561,0.5263224244117737,-0.1596362441778183,0.5603853464126587,-1.0752822889384177,-7.520596577145271,-3.3698203716693342,0.0143091336197612,-0.0711474968059146,-0.005,-0.028,0.008,0.23
2025-07-30 17:08:36.751972,1753866516.751972,-0.6687389016151428,0.1660940945148468,9.775976181030272,0.0578872635960578,-0.034044049680233,0.1233081147074699,0.5272132158279419,-0.1593039482831955,0.5604070425033569,-1.0399813181032616,-7.539517897217179,-3.3026073233963587,0.0145245174376366,-0.0722184225447848,-0.005,-0.028,0.008,0.23
2025-07-30 17:08:36.762651,1753866516.762651,-0.6689430475234985,0.1648878306150436,9.78105926513672,0.0602124221622943,-0.0317631363868713,0.1212980896234512,0.5277956128120422,-0.1586776673793792,0.5604682564735413,-1.0017399515064715,-7.560015269392688,-3.229795761609637,0.0147578416591389,-0.0733785510854222,-0.005,-0.028,0.008,0.23
2025-07-30 17:08:36.772034,1753866516.772034,-0.6766948103904724,0.155766487121582,9.782696723937988,0.0580830313265323,-0.0332282781600952,0.1222665086388588,0.5280710458755493,-0.158332958817482,0.5601884722709656,-0.968139697383619,-7.578025005321049,-3.1658208779473966,0.0149628487975646,-0.0743978821723991,-0.005,-0.028,0.008,0.23
2025-07-30 17:08:36.781723,1753866516.781723,-0.66655433177948,0.1527133733034134,9.786046028137209,0.0533793233335018,-0.0297840349376201,0.1278561949729919,0.5289072394371033,-0.1581780463457107,0.5589337944984436,-0.9334431981510286,-7.596622328619044,-3.0997587436023224,0.0151745445185271,-0.0754504700530663,-0.005,-0.028,0.008,0.23
2025-07-30 17:08:36.792649,1753866516.792649,-0.6698850989341736,0.1556147634983062,9.775922775268556,0.0525027513504028,-0.0272001102566719,0.1276523619890213,0.5291582942008972,-0.157498225569725,0.5583786368370056,-0.8943173222600884,-7.617593797768809,-3.0252630761244887,0.0154132654468116,-0.0766374319568369,-0.005,-0.028,0.008,0.23
2025-07-30 17:08:36.801821,1753866516.801821,-0.6640480160713196,0.1455587148666381,9.783967971801758,0.0516552478075027,-0.0285489279776811,0.1267583817243576,0.5283063054084778,-0.1576215922832489,0.5593230128288269,-0.8614726576404435,-7.635198537729778,-2.9627268348721287,0.0156136624640962,-0.0776338407210601,-0.005,-0.028,0.008,0.23
2025-07-30 17:08:36.812600,1753866516.8126,-0.6839708089828491,0.1592409759759903,9.78613567352295,0.050437930971384,-0.0248262882232666,0.1291227787733078,0.5289202928543091,-0.1570583879947662,0.5600049495697021,-0.823537998822688,-7.655118301943589,-2.8884997655613915,0.0158273144034389,-0.0787665013088068,-0.005,-0.028,0.008,0.23
2025-07-30 17:08:36.822326,1753866516.822326,-0.6619513630867004,0.143207773566246,9.79715061187744,0.0491749607026577,-0.0275485962629318,0.1288605332374572,0.5297248959541321,-0.156840369105339,0.5581294894218445,-0.7992971016714112,-7.661526815352502,-2.8104830851080465,0.0156915558688319,-0.0792124615960332,-0.005,-0.028,0.008,0.23
2025-07-30 17:08:36.832248,1753866516.832248,-0.6474680304527283,0.1580957472324371,9.79384422302246,0.0449492149055004,-0.0256399717181921,0.1334904134273529,0.5302843451499939,-0.1564545631408691,0.5575349926948547,-0.7745677499077319,-7.668064460447989,-2.7308943668223837,0.0155530617967574,-0.079667407992886,-0.005,-0.028,0.008,0.23
2025-07-30 17:08:36.841900,1753866516.8419,-0.6527570486068726,0.1429066359996795,9.805270195007324,0.0454800054430961,-0.023487789556384,0.1378815323114395,0.5299272537231445,-0.155490294098854,0.5570237636566162,-0.7505110631333953,-7.674424274559045,-2.6534705473520432,0.0154183349125335,-0.0801099793579905,-0.005,-0.028,0.008,0.23
2025-07-30 17:08:36.852525,1753866516.852525,-0.6530591249465942,0.1403657644987106,9.80795669555664,0.0404640510678291,-0.0232807826250791,0.1387014389038086,0.5305010676383972,-0.1545604169368744,0.5571199655532837,-0.7240299301077175,-7.681425034267696,-2.568243912363513,0.0152700301781062,-0.0805971533110218,-0.005,-0.028,0.008,0.23
2025-07-30 17:08:36.861953,1753866516.861953,-0.6614857912063599,0.1274142414331436,9.785197257995604,0.0355476438999176,-0.0227040853351354,0.1385435312986374,0.529917299747467,-0.1546111106872558,0.5574392080307007,-0.7005318167344252,-7.68763717954009,-2.492617800390022,0.0151384315240762,-0.0810294485896922,-0.005,-0.028,0.008,0.23
2025-07-30 17:08:36.872398,1753866516.872398,-0.6584609150886536,0.1202778741717338,9.778698921203612,0.0338291302323341,-0.0232763141393661,0.1426276713609695,0.5302242040634155,-0.1543295085430145,0.5577801465988159,-0.6744993251106501,-7.694519332894286,-2.408835068763324,0.0149926393575175,-0.0815083688775556,-0.005,-0.028,0.008,0.23
2025-07-30 17:08:36.881865,1753866516.881865,-0.6491612195968628,0.0975556671619415,9.753473281860352,0.0336064137518405,-0.0209293030202388,0.1459947228431701,0.5307994484901428,-0.153975248336792,0.5574959516525269,-0.6509037585056863,-7.70075724166619,-2.332895314205274,0.0148604949271558,-0.0819424570053486,-0.006,-0.026,0.005,0.23
2025-07-30 17:08:36.892523,1753866516.892523,-0.6530141830444336,0.1077345609664917,9.782686233520508,0.0341992303729057,-0.0169984046369791,0.1421648561954498,0.5311049818992615,-0.1531180441379547,0.5582172870635986,-0.6243400279238966,-7.707779837511623,-2.247402848001798,0.0147117276140083,-0.0824311505073313,-0.006,-0.026,0.005,0.23
2025-07-30 17:08:36.902485,1753866516.902485,-0.6658592224121094,0.1213540658354759,9.793657302856444,0.0320786722004413,-0.0117415692657232,0.1447509825229644,0.5307736992835999,-0.1530645191669464,0.5576009750366211,-0.5995114402474787,-7.714343717390149,-2.167494749767201,0.0145726777818888,-0.0828879225493272,-0.006,-0.026,0.005,0.23
2025-07-30 17:08:36.912237,1753866516.912237,-0.6962092518806458,0.1266770809888839,9.79745864868164,0.0320225320756435,-0.0162995886057615,0.1474632024765014,0.5304079651832581,-0.1517966836690902,0.5571247935295105,-0.5752057723507618,-7.720769354100565,-2.089269611742424,0.0144365565056955,-0.0833350744252997,-0.006,-0.026,0.005,0.23
2025-07-30 17:08:36.922600,1753866516.9226,-0.6865662932395935,0.0946720093488693,9.789098739624023,0.0240358039736747,-0.0114153297618031,0.1480527073144912,0.5300694704055786,-0.1520151793956756,0.5561631321907043,-0.5493771005956656,-7.7275976240381,-2.006142852106592,0.0142919058103671,-0.0838102450348154,-0.006,-0.026,0.005,0.23
2025-07-30 17:08:36.931944,1753866516.931944,-0.6863390207290649,0.0683578178286552,9.767258644104004,0.0284342188388109,-0.0100043714046478,0.1498786956071853,0.5315769910812378,-0.1522708982229232,0.5561059713363647,-0.526088749361276,-7.733754314948739,-1.9311918366718004,0.014161481906612,-0.0842386813150696,-0.006,-0.026,0.005,0.23
2025-07-30 17:08:36.941792,1753866516.941792,-0.6749510765075684,0.0661333873867988,9.7682523727417,0.0232225116342306,-0.0044212769716978,0.1520967185497284,0.5328062176704407,-0.1517201066017151,0.5570893883705139,-0.5015436079745368,-7.740243260746371,-1.8521959793691425,0.0140240194849207,-0.0846902387898005,-0.006,-0.026,0.005,0.23
2025-07-30 17:08:36.952609,1753866516.952609,-0.6834952235221863,0.0725289434194564,9.776446342468262,0.0193943809717893,-0.0020291686523705,0.1535258591175079,0.5331447720527649,-0.1515015959739685,0.5580510497093201,-0.4745835279688148,-7.74737063862945,-1.765427905824808,0.0138730324594973,-0.0851862239403487,-0.006,-0.026,0.005,0.23
2025-07-30 17:08:36.961840,1753866516.96184,-0.6907809376716614,0.0795445367693901,9.775146484375,0.0185237787663936,-0.0031880142632871,0.1539408415555954,0.5328206419944763,-0.1511760503053665,0.5577801465988159,-0.4515768403430369,-7.753452866742723,-1.6913833939575795,0.0137441859824571,-0.0856094784493584,-0.006,-0.026,0.005,0.23
2025-07-30 17:08:36.972199,1753866516.972199,-0.7064422369003296,0.0568554401397705,9.784849166870115,0.020627798512578,-0.0012009721249341,0.1518836468458175,0.5327289700508118,-0.1489879190921783,0.5574045777320862,-0.4257582704473213,-7.760278466073601,-1.6082891460530675,0.0135995918615045,-0.0860844632147578,-0.006,-0.026,0.005,0.23
2025-07-30 17:08:36.982218,1753866516.982218,-0.7084994316101074,0.0501723363995552,9.781086921691896,0.0162560865283012,0.0010595159837976,0.1515186578035354,0.5323575139045715,-0.1485677063465118,0.5562025308609009,-0.4007870682855303,-7.766880048634338,-1.527922058670356,0.0134597433323142,-0.0865438589383964,-0.006,-0.026,0.005,0.23
2025-07-30 17:08:36.992532,1753866516.992532,-0.7209942936897278,0.0582403428852558,9.759492874145508,0.0179580673575401,0.0026233280077576,0.1563475281000137,0.5323804616928101,-0.1483272314071655,0.5568583011627197,-0.375080807297046,-7.773675957102973,-1.4451892647199855,0.0133157781853049,-0.087016777554502,-0.006,-0.026,0.005,0.23
2025-07-30 17:08:37.002493,1753866517.002493,-0.7326927185058594,0.0564325675368309,9.764252662658691,0.0139300748705863,0.0038389542605727,0.1537135988473892,0.5320864319801331,-0.1474891752004623,0.557588517665863,-0.3502545965287175,-7.780239208603462,-1.3652888163045418,0.0131767416648032,-0.0874735058684706,-0.006,-0.026,0.005,0.23
2025-07-30 17:08:37.012521,1753866517.012521,-0.72443687915802,0.0388462021946907,9.74989414215088,0.0154076246544718,0.0064132837578654,0.1556117087602615,0.5329528450965881,-0.1468217521905899,0.5573348999023438,-0.325748217517491,-7.786130888338402,-1.2845748969778583,0.0130375111394626,-0.0879087364174539,-0.006,-0.026,0.005,0.23
2025-07-30 17:08:37.022537,1753866517.022537,-0.7372510433197021,0.0346186608076095,9.764124870300291,0.0176957789808511,0.005153652280569,0.1545497775077819,0.5329298973083496,-0.1470622420310974,0.5566791892051697,-0.3099667280600004,-7.779244419592329,-1.1990679157231483,0.0129117305106321,-0.087904926964754,-0.006,-0.026,0.005,0.23
2025-07-30 17:08:37.031839,1753866517.031839,-0.7540067434310913,0.0262478049844503,9.75969123840332,0.0164585839956998,0.0084334751591086,0.1543928384780883,0.5331822633743286,-0.1469580233097076,0.5557436347007751,-0.2953103412191531,-7.772848904759478,-1.1196569451529967,0.0127949171034951,-0.0879013890976489,-0.006,-0.026,0.005,0.23
2025-07-30 17:08:37.041613,1753866517.041613,-0.763974130153656,-0.005557722877711,9.762551307678224,0.0191973578184843,0.0077135944738984,0.1532636880874633,0.5331407189369202,-0.1460157334804535,0.5555383563041687,-0.2799097713120052,-7.766128655468498,-1.0362138553287252,0.0126721724555652,-0.0878976715941287,-0.006,-0.026,0.005,0.23
2025-07-30 17:08:37.052449,1753866517.052449,-0.7655434608459473,-0.0368226170539855,9.751508712768556,0.0198763534426689,0.0082656340673565,0.156300812959671,0.5337045788764954,-0.1442066878080368,0.5560500025749207,-0.2628363860619817,-7.758678450325907,-0.9437071476152,0.0125360952406231,-0.0878935502940631,-0.006,-0.026,0.005,0.23
2025-07-30 17:08:37.062449,1753866517.062449,-0.7765865921974182,-0.03755409643054,9.739995002746582,0.024520356208086,0.0060032936744391,0.1559729427099228,0.5346125364303589,-0.1444815397262573,0.5560016632080078,-0.2470800658449969,-7.751802964522132,-0.858336537885009,0.0124105152140809,-0.0878897469169007,-0.006,-0.026,0.005,0.23
2025-07-30 17:08:37.071810,1753866517.07181,-0.771104097366333,-0.0482582934200763,9.7318115234375,0.0249550566077232,0.0094197038561105,0.1554312258958816,0.5346183180809021,-0.1436339020729065,0.5567274689674377,-0.2323305152482473,-7.745366796410323,-0.7784207891346284,0.0122929592790708,-0.0878861865612389,-0.006,-0.026,0.005,0.23
2025-07-30 17:08:37.082168,1753866517.082168,-0.7768033146858215,-0.0563667975366115,9.736502647399902,0.0219416208565235,0.0093210255727171,0.1572065204381942,0.5336874127388,-0.1435995250940323,0.5561200380325317,-0.2160099532515637,-7.738245095989634,-0.6899930147806401,0.0121628821683938,-0.0878822469832206,-0.006,-0.026,0.005,0.23
2025-07-30 17:08:37.094110,1753866517.09411,-0.7616268396377563,-0.0467242300510406,9.736897468566896,0.026741461828351,0.0124719832092523,0.1568414121866226,0.5328110456466675,-0.1433877646923065,0.5567890405654907,-0.1971938798417377,-7.73003444503621,-0.5880441055427212,0.0120129154905346,-0.087877705020192,-0.006,-0.026,0.005,0.23
2025-07-30 17:08:37.101932,1753866517.101932,-0.7700877785682678,-0.0835036188364029,9.731215476989746,0.0272773653268814,0.0086972704157233,0.1531075686216354,0.5333776473999023,-0.1427299231290817,0.5565398931503296,-0.1848692165205916,-7.724656409648894,-0.5212668372493567,0.0119146862386738,-0.0878747300017636,-0.006,-0.026,0.005,0.23
2025-07-30 17:08:37.112385,1753866517.112385,-0.7660318613052368,-0.0634829178452491,9.7445650100708,0.0296743083745241,0.0086061907932162,0.1543609499931335,0.5351592302322388,-0.1420653313398361,0.5565833449363708,-0.168399141722097,-7.717469467272457,-0.4320289753319599,0.011783417490523,-0.087870754333239,-0.009,-0.024,0.004,0.23
2025-07-30 17:08:37.121711,1753866517.121711,-0.7766801714897156,-0.0371959693729877,9.73798656463623,0.0307824481278657,0.0098373219370841,0.156925082206726,0.5351190567016602,-0.1416986584663391,0.5559976696968079,-0.1537048131903378,-7.711057396063902,-0.352412429777118,0.0116663016829216,-0.0878672073074878,-0.009,-0.024,0.004,0.23
2025-07-30 17:08:37.131582,1753866517.131582,-0.7637953162193298,-0.0718774423003196,9.731962203979492,0.0351451784372329,0.0082989549264311,0.1557771563529968,0.5351248979568481,-0.1408510357141494,0.556723415851593,-0.1381517251989304,-7.704270593421079,-0.2681429692223247,0.0115423414450059,-0.0878634529880238,-0.009,-0.024,0.004,0.23
2025-07-30 17:08:37.146571,1753866517.146571,-0.7683091163635254,-0.0801171064376831,9.726836204528809,0.0358914546668529,0.0104635935276746,0.15580415725708,0.5345396399497986,-0.1403261125087738,0.5574230551719666,-0.1145347130776851,-7.693964987205223,-0.1401817005358054,0.0113541106291687,-0.0878577521388847,-0.009,-0.024,0.004,0.23
2025-07-30 17:08:37.159220,1753866517.15922,-0.783065915107727,-0.0790998712182045,9.749228477478027,0.0421401597559452,0.0110185677185654,0.152582973241806,0.5344435572624207,-0.1395612210035324,0.5559412837028503,-0.0946044312000915,-7.685268136149422,-0.0321958070940695,0.0111952635574721,-0.0878529412199716,-0.009,-0.024,0.004,0.23
2025-07-30 17:08:37.226284,1753866517.226284,-0.7909432053565979,-0.0698177814483642,9.747621536254885,0.0447678454220294,0.0134110543876886,0.1558506190776825,0.5350115895271301,-0.1394789814949035,0.5553117394447327,0.0438247882425336,-7.634653685244445,0.5391060641553054,0.0103197129611838,-0.088928893160988,-0.009,-0.024,0.004,0.23
2025-07-30 17:08:37.327463,1753866517.327463,-0.775277316570282,-0.0927013978362083,9.764349937438965,0.0578497685492038,0.0088921533897519,0.1544542014598846,0.5377516150474548,-0.1334259957075119,0.5540707111358643,0.4351305046916831,-7.533204060112866,1.3941815135593174,0.008812986241461,-0.0966866556020768,-0.008,-0.019,0.0,0.23
2025-07-30 17:08:37.339976,1753866517.339976,-0.7650483250617981,-0.1419192999601364,9.785629272460938,0.0798389762639999,0.0045153838582336,0.1530132591724395,0.5417752265930176,-0.1297948956489563,0.5528421998023987,0.4835247060987339,-7.52065741592929,1.4999318048972157,0.0086266438670093,-0.0976460863035981,-0.008,-0.019,0.0,0.23
2025-07-30 17:08:37.346581,1753866517.346581,-0.7507452964782715,-0.1439603865146637,9.778460502624512,0.0795346871018409,0.0003538038581609,0.1517883539199829,0.5420234203338623,-0.1279638707637787,0.5530478954315186,0.5090689588534693,-7.514034832212011,1.5557507272532405,0.008528285456838,-0.098152509379664,-0.008,-0.019,0.0,0.23
2025-07-30 17:08:37.351737,1753866517.351737,-0.7577289938926697,-0.154923528432846,9.77907371520996,0.0796060711145401,0.0016646599397063,0.1508420556783676,0.5428510904312134,-0.1275053769350052,0.551828145980835,0.5290097598524189,-7.508864995173789,1.5993250699190753,0.00845150319577,-0.0985478422115956,-0.008,-0.019,0.0,0.23
2025-07-30 17:08:37.362752,1753866517.362752,-0.7549338340759277,-0.1578738242387771,9.78988265991211,0.0795630440115928,-0.0006718675140291,0.1510488390922546,0.5428181290626526,-0.1268666684627533,0.5515878796577454,0.5716096399112129,-7.49782058237596,1.69241369616347,0.0082874719157672,-0.0993923986175533,-0.008,-0.019,0.0,0.23
2025-07-30 17:08:37.372281,1753866517.372281,-0.7567569017410278,-0.1576248854398727,9.80037784576416,0.0818193405866622,-0.0010134977055713,0.14641073346138,0.5422415733337402,-0.1266453266143798,0.552252471446991,0.6084631465386995,-7.488265970023066,1.7729454323915093,0.0081455671062617,-0.1001230313109152,-0.008,-0.019,0.0,0.23
2025-07-30 17:08:37.382907,1753866517.382907,-0.7598335146903992,-0.1543809324502945,9.809213638305664,0.0848260521888732,-0.0013703558361157,0.1514376550912857,0.5427765846252441,-0.1259243935346603,0.5513825416564941,0.6495581996655465,-7.477611697521472,1.862745733137416,0.0079873301779681,-0.1009377540360391,-0.008,-0.019,0.0,0.23
2025-07-30 17:08:37.398684,1753866517.398684,-0.7529861927032471,-0.1726928055286407,9.804328918457031,0.0851634740829467,-0.0009321172256022,0.1488239914178848,0.5441694259643555,-0.1242324560880661,0.5502941012382507,0.7105756122848244,-7.461792369112737,1.996080078442532,0.0077523819978186,-0.1021474439842608,-0.008,-0.019,0.0,0.23
2025-07-30 17:08:37.402896,1753866517.402896,-0.7646255493164062,-0.1666828840970993,9.800654411315918,0.0849432721734047,-0.003584430553019,0.1464017331600189,0.5454561114311218,-0.1246554851531982,0.5517931580543518,0.7268649949930203,-7.457569196028615,2.0316753960017024,0.0076896595607509,-0.1024703862671104,-0.008,-0.019,0.0,0.23
2025-07-30 17:08:37.412066,1753866517.412066,-0.7539538145065308,-0.178578570485115,9.80799961090088,0.0871395245194435,-0.0061964588239789,0.1476386934518814,0.5458104014396667,-0.1244685351848602,0.5530651807785034,0.762448250646889,-7.44842722260682,2.1091397974457067,0.0075569818453567,-0.1031724256215616,-0.008,-0.019,0.0,0.23
2025-07-30 17:08:37.423006,1753866517.423006,-0.7712165117263794,-0.1673731952905655,9.827406883239746,0.0885998904705047,-0.0052449698559939,0.1473200470209121,0.5450746417045593,-0.1233561038970947,0.551006555557251,0.8216827377595096,-7.444979712627265,2.196894593046551,0.0079487142844976,-0.1038592901611434,-0.008,-0.019,0.0,0.23
2025-07-30 17:08:37.431988,1753866517.431988,-0.7605445384979248,-0.170647382736206,9.811447143554688,0.0873542129993438,-0.0063146287575364,0.1452129930257797,0.544718861579895,-0.1229674369096756,0.5501149296760559,0.8703150184768036,-7.442149262305603,2.2689424162316243,0.0082703316880577,-0.1044232148396874,-0.008,-0.019,0.0,0.23
2025-07-30 17:08:37.443337,1753866517.443337,-0.762157142162323,-0.1828280687332153,9.8167724609375,0.0886965170502662,-0.0095215663313865,0.1449101567268371,0.5449555516242981,-0.1228316724300384,0.5488691329956055,0.931763408422492,-7.438572900832891,2.359977067876926,0.0086767052188852,-0.1051357511023521,-0.008,-0.019,0.0,0.23
2025-07-30 17:08:37.453708,1753866517.453708,-0.7466878890991211,-0.1821649968624115,9.829594612121582,0.0914201512932777,-0.0108172316104173,0.1463688760995865,0.5455121994018555,-0.1212946474552154,0.549035370349884,0.987916504245006,-7.435304731094829,2.443166839350596,0.0090480596487809,-0.1057868847947043,-0.008,-0.019,0.0,0.23
2025-07-30 17:08:37.461916,1753866517.461916,-0.757420539855957,-0.1887049376964569,9.812986373901367,0.0887854471802711,-0.0102341957390308,0.1443910002708435,0.5466870069503784,-0.1209212318062782,0.5487423539161682,1.032358505897497,-7.432718159459338,2.5090068417075315,0.0093419656916329,-0.106302220311075,-0.008,-0.019,0.0,0.23
2025-07-30 17:08:37.477811,1753866517.477811,-0.7446256279945374,-0.1961390525102615,9.808507919311523,0.0908104702830314,-0.0125453257933259,0.1394224464893341,0.5475863218307495,-0.1208925172686576,0.5487290620803833,1.11842188081166,-7.427709179752521,2.636508137700062,0.0099111242581911,-0.1073001842214045,-0.008,-0.019,0.0,0.23
2025-07-30 17:08:37.481377,1753866517.481377,-0.7517551779747009,-0.188999518752098,9.819050788879396,0.0928321704268455,-0.0148935951292514,0.1448846161365509,0.5472220182418823,-0.120200291275978,0.5478724241256714,1.137728662602541,-7.426585504573724,2.66511077735062,0.010038804822193,-0.1075240596094093,-0.007,-0.014,0.0,0.23
2025-07-30 17:08:37.492161,1753866517.492161,-0.7406412363052368,-0.2224067747592926,9.824195861816406,0.0923113003373146,-0.0168688222765922,0.137579545378685,0.5471818447113037,-0.1198336035013198,0.5472867488861084,1.196118897556079,-7.423187130965322,2.751614829013832,0.0104249540112098,-0.1082011344656697,-0.007,-0.014,0.0,0.23
2025-07-30 17:08:37.508583,1753866517.508583,-0.751735508441925,-0.2201204150915146,9.822198867797852,0.0953369140625,-0.0161611121147871,0.1415684670209884,0.546827495098114,-0.1200205609202385,0.546014666557312,1.285035173497111,-7.418012109392688,2.883342645040301,0.0110129795239063,-0.1092321797217796,-0.007,-0.014,0.0,0.23
2025-07-30 17:08:37.513204,1753866517.513204,-0.7441138625144958,-0.2283666580915451,9.83025360107422,0.0929389595985412,-0.0174031816422939,0.1400176137685775,0.5486320853233337,-0.1191155016422271,0.5467139482498169,1.310055502774381,-7.416555899689865,2.920409799473802,0.011178445202663,-0.1095223076149535,-0.007,-0.014,0.0,0.23
2025-07-30 17:08:37.522453,1753866517.522453,-0.7524398565292358,-0.2297181338071823,9.828229904174805,0.0939244031906127,-0.0167902540415525,0.1383440941572189,0.549831211566925,-0.1190772056579589,0.5466962456703186,1.3601335975867397,-7.413641301454305,2.994599569463404,0.0115096241354877,-0.1101029975004087,-0.007,-0.014,0.0,0.23
2025-07-30 17:08:37.533035,1753866517.533035,-0.7490556836128235,-0.2194491177797317,9.825573921203612,0.0938781127333641,-0.0201194249093532,0.1382360309362411,0.5497423410415649,-0.1180402785539627,0.545559823513031,1.4174291447254432,-7.410306639837851,3.079481861403181,0.0118885338809184,-0.1107673787000077,-0.007,-0.014,0.0,0.23
2025-07-30 17:08:37.542200,1753866517.5422,-0.7505854368209839,-0.2399616837501526,9.812904357910156,0.0943301245570182,-0.0193288959562778,0.1381087303161621,0.5503089427947998,-0.1173824369907379,0.5453106760978699,1.46705284082221,-7.407418488089517,3.152998448111361,0.0122167077616885,-0.1113427995204337,-0.007,-0.014,0.0,0.23
2025-07-30 17:08:37.554638,1753866517.554638,-0.7539490461349487,-0.2358664572238922,9.817655563354492,0.0950149372220039,-0.0244229007512331,0.1377616822719574,0.5511753559112549,-0.1167150139808654,0.5450570583343506,1.5343967959216127,-7.403498998471475,3.252767270342659,0.0126620701355086,-0.1121236989080662,-0.007,-0.014,0.0,0.23
2025-07-30 17:08:37.562836,1753866517.562836,-0.7582667469978333,-0.2496165633201599,9.816546440124512,0.0954509153962135,-0.023788433521986,0.1334291398525238,0.5504566431045532,-0.1162097305059433,0.5429284572601318,1.5787845795455386,-7.400915582382754,3.318526949694416,0.0129556176210131,-0.1126384057291777,-0.007,-0.014,0.0,0.23
2025-07-30 17:08:37.572842,1753866517.572842,-0.7515198588371277,-0.2499791830778122,9.819594383239746,0.0946925282478332,-0.0225001405924558,0.1342172920703888,0.5505112409591675,-0.1160323619842529,0.5442048907279968,1.632961299136317,-7.397762439837708,3.3987887563843917,0.0133139017818872,-0.1132666219824395,-0.007,-0.014,0.0,0.23
2025-07-30 17:08:37.582068,1753866517.582068,-0.750600278377533,-0.2562133967876434,9.82631492614746,0.0943030342459678,-0.0242419950664043,0.131982147693634,0.5511280298233032,-0.1166203618049621,0.5441259741783142,1.6829154670262414,-7.394855054280482,3.472794930933617,0.0136442611550607,-0.1138458748501595,-0.007,-0.014,0.0,0.23
2025-07-30 17:08:37.597953,1753866517.597953,-0.7553071975708008,-0.2670690417289734,9.824881553649902,0.0932511091232299,-0.0252723433077335,0.1332158297300338,0.551939845085144,-0.1161303222179412,0.5425959825515747,1.76892462391184,-7.389849230120438,3.6002159039209687,0.0142130611642714,-0.1148432100652299,-0.007,-0.014,0.0,0.23
2025-07-30 17:08:37.605305,1753866517.605305,-0.771460235118866,-0.2708607614040375,9.830620765686035,0.0933617204427719,-0.0285783838480711,0.1311860233545303,0.5516142845153809,-0.1152291595935821,0.5427054762840271,1.8087309841220296,-7.387532457733879,3.6591882893358583,0.0144763105539186,-0.1153047921369412,-0.007,-0.014,0.0,0.23
2025-07-30 17:08:37.611904,1753866517.611904,-0.7597121000289917,-0.2829152047634125,9.819010734558104,0.0942034795880317,-0.0268518030643463,0.1291650086641311,0.5519212484359741,-0.1149475648999214,0.5430464148521423,1.844460664946314,-7.385452952411686,3.712121149742956,0.0147125998458714,-0.1157191023127366,-0.007,-0.014,0.0,0.23
2025-07-30 17:08:37.622778,1753866517.622778,-0.7728803157806396,-0.2758733034133911,9.816685676574709,0.0946533158421516,-0.0350794717669487,0.1301296353340149,0.5518739223480225,-0.1148529201745987,0.542115330696106,1.9033375712514944,-7.391916365874417,3.787910755274595,0.0149715214774599,-0.1162314585945391,-0.007,-0.014,0.0,0.23
2025-07-30 17:08:37.635755,1753866517.635755,-0.779484212398529,-0.3004997670650482,9.81348705291748,0.0901112779974937,-0.0299018491059541,0.1283131837844848,0.5530328750610352,-0.1144479513168335,0.5415118932723999,1.9736015544607508,-7.399723475336176,3.8782501629994783,0.0152792847196984,-0.1168412940397355,-0.007,-0.014,0.0,0.23
2025-07-30 17:08:37.642046,1753866517.642046,-0.7544656991958618,-0.3249663710594177,9.786165237426758,0.0925358533859252,-0.0331094823777675,0.126732513308525,0.5547441244125366,-0.1139291822910308,0.5399685502052307,2.007663385453943,-7.403508123329158,3.922043946064491,0.0154284789307898,-0.117136923620058,-0.007,-0.014,0.0,0.23
2025-07-30 17:08:37.655001,1753866517.655001,-0.7633273601531982,-0.3163297772407532,9.80419635772705,0.0903792604804039,-0.0312692821025848,0.1264073699712753,0.5550181269645691,-0.1130088865756988,0.5400692224502563,2.0778073144570914,-7.411301893434312,4.012228998380252,0.0157357163236524,-0.1177457170903068,-0.007,-0.014,0.0,0.23
2025-07-30 17:08:37.662624,1753866517.662624,-0.778316855430603,-0.3117760717868805,9.808988571166992,0.09116842597723,-0.0345994234085083,0.1251775026321411,0.5537616610527039,-0.1120733469724655,0.539571225643158,2.11908143415486,-7.415887906861112,4.065295724141549,0.0159165010773561,-0.1181039435957132,-0.007,-0.014,0.0,0.23
2025-07-30 17:08:37.679120,1753866517.67912,-0.780329704284668,-0.3253283202648163,9.803497314453123,0.0884838253259658,-0.0302720330655574,0.1232773885130882,0.5543584227561951,-0.1109029948711395,0.5403231978416443,2.208399181688361,-7.425812101306438,4.180132829055822,0.0163077217044088,-0.1188791505487381,-0.007,-0.014,0.0,0.23
2025-07-30 17:08:37.684285,1753866517.684285,-0.7899320721626282,-0.3313832581043243,9.812603950500488,0.0855142921209335,-0.0359619371592998,0.119872085750103,0.5558501482009888,-0.1111271604895591,0.5399556756019592,2.236364066278883,-7.428919310791466,4.216087680967348,0.0164302106832185,-0.1191218634873618,-0.004,-0.005,0.0,0.23
2025-07-30 17:08:37.692575,1753866517.692575,-0.7885614633560181,-0.3414457440376282,9.811180114746094,0.08720213919878,-0.0329347848892211,0.1185096576809883,0.5552046298980713,-0.1116272658109664,0.5386530756950378,2.281250139403429,-7.4339066523879165,4.27379834688692,0.016626816152553,-0.1195114388734527,-0.004,-0.005,0.0,0.23
2025-07-30 17:08:37.704443,1753866517.704443,-0.8018112778663635,-0.3467438519001007,9.794910430908203,0.086854264140129,-0.0331790335476398,0.1198804602026939,0.5551903247833252,-0.1121713146567344,0.5379623770713806,2.3455088304964,-7.441046507151601,4.35641666468463,0.0169082756174097,-0.1200691531632008,-0.004,-0.005,0.0,0.23
2025-07-30 17:08:37.712598,1753866517.712598,-0.7939102053642273,-0.360676109790802,9.78800106048584,0.0831757858395576,-0.0376532860100269,0.118131622672081,0.5566778182983398,-0.1106686741113662,0.5387359857559204,2.3896642511407613,-7.445952665136894,4.413187920264804,0.017101680756134,-0.1204523870673519,-0.004,-0.005,0.0,0.23
2025-07-30 17:08:37.723092,1753866517.723092,-0.8049474954605103,-0.3534102439880371,9.792813301086426,0.085014596581459,-0.0375452302396297,0.1179525628685951,0.5569432973861694,-0.1094447895884513,0.5388716459274292,2.4464834541713585,-7.45226591009297,4.486241181903807,0.0173505545225703,-0.1209455325224378,-0.004,-0.005,0.0,0.23
2025-07-30 17:08:37.736347,1753866517.736347,-0.8027251958847046,-0.3665868043899536,9.794435501098633,0.0797036364674568,-0.0333352014422416,0.1130980178713798,0.5575199127197266,-0.1096661239862442,0.5382071137428284,2.5182513422205703,-7.460240120097131,4.578514181581639,0.017664905017743,-0.1215684206645597,-0.004,-0.005,0.0,0.23
2025-07-30 17:08:37.743715,1753866517.743715,-0.8063417077064514,-0.3747155964374542,9.793707847595217,0.0765409171581268,-0.0355313755571842,0.1133309081196785,0.5575199127197266,-0.1096661239862442,0.5382071137428284,2.5581454840008173,-7.46467280263996,4.629806650005847,0.0178396453307715,-0.1219146700600834,-0.004,-0.005,0.0,0.23
2025-07-30 17:08:37.751940,1753866517.75194,-0.8128538727760315,-0.3897815942764282,9.787842750549316,0.0773402974009513,-0.0383760817348957,0.113613560795784,0.5584264993667603,-0.1093653738498687,0.5385392308235168,2.602679139939692,-7.469620986770251,4.687064208111536,0.0180347071777445,-0.1223011867455214,-0.004,-0.005,0.0,0.23
2025-07-30 17:08:37.767815,1753866517.767815,-0.8201544284820557,-0.3911896049976349,9.791566848754885,0.0779256895184516,-0.0360894054174423,0.113090232014656,0.5589800477027893,-0.1098271906375885,0.5372188687324524,2.6886340787967256,-7.479171535796729,4.797577701834868,0.0184111983679788,-0.123047207195979,-0.004,-0.005,0.0,0.23
2025-07-30 17:08:37.773209,1753866517.773209,-0.8219399452209473,-0.3951038122177124,9.7929048538208,0.0740167051553726,-0.0374759100377559,0.1095273792743682,0.5592482686042786,-0.1097545176744461,0.5365937352180481,2.7178395235170307,-7.482416585299995,4.83512755964064,0.0185391211236724,-0.1233006872090623,-0.004,-0.005,0.0,0.23
2025-07-30 17:08:37.782764,1753866517.782764,-0.8295727968215942,-0.4161691665649414,9.779547691345217,0.0718056857585907,-0.0404507704079151,0.1077258214354515,0.5585769414901733,-0.1093438863754272,0.535396158695221,2.769573850011504,-7.488164843958629,4.901643122822378,0.0187657226246084,-0.1237496999832988,-0.004,-0.005,0.0,0.23
2025-07-30 17:08:37.792626,1753866517.792626,-0.8441279530525208,-0.4156337678432464,9.770777702331545,0.0708656460046768,-0.037107765674591,0.1078042313456535,0.5594677925109863,-0.1090115904808044,0.535417914390564,2.8229708627153007,-7.494097845534529,4.970296425433659,0.0189996068566855,-0.1242131435503594,-0.004,-0.005,0.0,0.23
2025-07-30 17:08:37.802353,1753866517.802353,-0.8375073671340942,-0.4319077730178833,9.770333290100098,0.064414694905281,-0.0355384610593318,0.1045321449637413,0.560407280921936,-0.1093495562672615,0.535990297794342,2.8756372229389138,-7.499949663499268,5.038010317705556,0.0192302907581524,-0.1246702456354802,-0.004,-0.005,0.0,0.23
2025-07-30 17:08:37.812586,1753866517.812586,-0.8454182147979736,-0.4438648521900177,9.774652481079102,0.0643588528037071,-0.0400536730885505,0.105023093521595,0.5606497526168823,-0.1083661541342735,0.5354702472686768,2.92971122562778,-7.506328151085401,5.108530089237178,0.0194887963172778,-0.1251240089115844,-0.004,-0.005,0.0,0.23
2025-07-30 17:08:37.824179,1753866517.824179,-0.8447384238243103,-0.4532029330730438,9.779335021972656,0.0646373927593231,-0.0391797088086605,0.1026901826262474,0.560877799987793,-0.1079268008470535,0.5342593789100647,2.966575595334096,-7.517619939853015,5.175284487181813,0.020071130619059,-0.1251416456836338,-0.004,-0.005,0.0,0.23
2025-07-30 17:08:37.832504,1753866517.832504,-0.8488743305206299,-0.4562771320343017,9.77560329437256,0.058717418462038,-0.0358286686241626,0.1041259169578552,0.5605779886245728,-0.1079363673925399,0.5342637896537781,2.993048737432754,-7.525728830116825,5.223222338190197,0.0204893181221356,-0.1251543110506628,-0.004,-0.005,0.0,0.23
2025-07-30 17:08:37.842160,1753866517.84216,-0.8609564900398254,-0.4472627639770508,9.770609855651855,0.0587618798017501,-0.0366419441998004,0.1016832813620567,0.5606253743171692,-0.1080310195684433,0.5351948738098145,3.023753882486756,-7.535134009556779,5.278823545757604,0.0209743571814918,-0.1251690011063554,-0.004,-0.005,0.0,0.23
2025-07-30 17:08:37.864774,1753866517.864774,-0.8644106984138489,-0.4675667881965637,9.765756607055664,0.0535629317164421,-0.0330415554344654,0.0992401987314224,0.5614773631095886,-0.1079076528549194,0.5342504978179932,3.0956645740514985,-7.5571607075784994,5.409040201011152,0.0221103066822311,-0.1252034048540701,-0.004,-0.005,0.0,0.23
2025-07-30 17:08:37.864774,1753866517.864774,-0.8594201803207397,-0.4840110838413238,9.75242805480957,0.0535757988691329,-0.035928625613451,0.1007535234093666,0.5623522996902466,-0.1075438112020492,0.5339618921279907,3.0956645740514985,-7.5571607075784994,5.409040201011152,0.0221103066822311,-0.1252034048540701,-0.004,-0.005,0.0,0.23
2025-07-30 17:08:37.872477,1753866517.872477,-0.867067277431488,-0.4827971160411834,9.760238647460938,0.0495860278606414,-0.0340315178036689,0.0992065146565437,0.5626335740089417,-0.1063514873385429,0.534407913684845,3.1201596982872943,-7.564663718505053,5.453396235956731,0.0224972480888666,-0.1252151238913386,-0.004,-0.005,0.0,0.23
2025-07-30 17:08:37.882068,1753866517.882068,-0.8852370977401733,-0.4772496521472931,9.777592658996582,0.0481754094362258,-0.0323576591908931,0.1006594970822334,0.5625876188278198,-0.1068324372172355,0.533096432685852,3.1506578679190804,-7.5740055000687825,5.508622650199058,0.0229790176256746,-0.1252297149251743,-0.004,-0.005,0.0,0.23
2025-07-30 17:08:37.892737,1753866517.892737,-0.8690418601036072,-0.4947137534618377,9.776094436645508,0.0459798611700534,-0.0318796783685684,0.0991855040192604,0.5637853741645813,-0.106218546628952,0.5334591269493103,3.1845843996726986,-7.584397410556648,5.570057179518415,0.0235149438693075,-0.1252459461672036,0.0,0.004,0.006,0.24
2025-07-30 17:08:37.905033,1753866517.905033,-0.8811238408088684,-0.4996869266033172,9.780158996582031,0.0419580861926078,-0.0299878772348165,0.0997015759348869,0.5634756088256836,-0.1053489446640014,0.5338789820671082,3.223685316981713,-7.596374267950134,5.640861541964881,0.0241326081766468,-0.1252646529556552,0.0,0.004,0.006,0.24
2025-07-30 17:08:37.912546,1753866517.912546,-0.8773990869522095,-0.5093197226524353,9.779762268066406,0.0358145870268344,-0.0295938495546579,0.1001322120428085,0.5631126761436462,-0.1052323132753372,0.5326420068740845,3.2475754361371862,-7.603691962007725,5.684122027190966,0.024509992517372,-0.1252760825444189,0.0,0.004,0.006,0.24
2025-07-30 17:08:37.924755,1753866517.924755,-0.8788623809814453,-0.5205128192901611,9.762091636657717,0.0361735150218009,-0.0302965212613344,0.0980034545063972,0.5631370544433594,-0.1055674403905868,0.5329173803329468,3.2863996280648498,-7.615584056672923,5.754425292334659,0.0251232854850405,-0.1252946569410106,0.0,0.004,0.006,0.24
2025-07-30 17:08:37.932702,1753866517.932702,-0.8750230073928833,-0.5295380353927612,9.755931854248049,0.0344840995967388,-0.0264614783227443,0.1019297614693641,0.5635256767272949,-0.106594793498516,0.5340492725372314,3.3116703415201583,-7.623324635465334,5.800185772597317,0.0255224786190272,-0.1253067470382043,0.0,0.004,0.006,0.24
2025-07-30 17:08:37.942189,1753866517.942189,-0.886153519153595,-0.5325720310211182,9.760010719299316,0.0294651743024587,-0.0255091525614261,0.0985103100538253,0.5637294054031372,-0.1058203130960464,0.5325631499290466,3.3418379569977823,-7.632565166208424,5.854813615814962,0.0259990265007765,-0.125321179927243,0.0,0.004,0.006,0.24
2025-07-30 17:08:37.952242,1753866517.952242,-0.8834474682807922,-0.5431689620018005,9.762651443481444,0.0268149338662624,-0.0258395820856094,0.1007725074887275,0.5639718770980835,-0.104836918413639,0.5320430397987366,3.373805424681782,-7.642357003025356,5.912700650804581,0.0265040060547951,-0.1253364739074474,0.0,0.004,0.006,0.24
2025-07-30 17:08:37.964958,1753866517.964958,-0.8838567733764648,-0.5346678495407104,9.762740135192873,0.0233012121170759,-0.0220221392810344,0.098403975367546,0.5624887943267822,-0.1049163341522216,0.5323755145072937,3.4142414471868485,-7.65474281155449,5.985922636128251,0.0271427605790116,-0.1253558194412836,0.0,0.004,0.006,0.24
2025-07-30 17:08:37.972534,1753866517.972534,-0.8844522833824158,-0.5477423071861267,9.759268760681152,0.0156952291727066,-0.0239870343357324,0.0971209406852722,0.5624873638153076,-0.1043407320976257,0.5327559113502502,3.4383324765506997,-7.662122045675082,6.029546931724838,0.0275233186321006,-0.1253673451501648,0.0,0.004,0.006,0.24
2025-07-30 17:08:37.982380,1753866517.98238,-0.8869242668151855,-0.5341444611549377,9.760743141174316,0.0143976518884301,-0.0212540850043296,0.0990154147148132,0.5636965036392212,-0.1051816195249557,0.5323228240013123,3.469641868533295,-7.671712309757348,6.086242316142403,0.028017902781094,-0.1253823242916447,0.0,0.004,0.006,0.24
2025-07-30 17:08:37.996334,1753866517.996334,-0.8769596815109253,-0.5483106970787048,9.743358612060549,0.0133129097521305,-0.0200972631573677,0.0979940667748451,0.5634326338768005,-0.1038310527801513,0.5340541005134583,3.514014972970841,-7.685304071294674,6.166593611858588,0.0287188500913656,-0.1254035534170664,0.0,0.004,0.006,0.24
2025-07-30 17:08:38.002722,1753866518.002722,-0.8943019509315491,-0.5466550588607788,9.747133255004885,0.0114816026762127,-0.019742015749216,0.1014330685138702,0.5628244876861572,-0.1035466268658638,0.5340979695320129,3.534328132265455,-7.691526120004172,6.203376899620409,0.0290397303757442,-0.1254132717050213,0.0,0.004,0.006,0.24
2025-07-30 17:08:38.015422,1753866518.015422,-0.8829466104507446,-0.5444950461387634,9.750550270080566,0.0060362922959029,-0.0155437942594289,0.0974472239613533,0.5636692643165588,-0.1036952883005142,0.532808244228363,3.5629615911166685,-7.700946134129908,6.265689364876792,0.0295308078763985,-0.1252957696356006,0.0,0.004,0.006,0.24
2025-07-30 17:08:38.022685,1753866518.022685,-0.875849187374115,-0.551013171672821,9.75658130645752,0.0024489150382578,-0.0169899147003889,0.0996186956763267,0.5635889768600464,-0.102961927652359,0.5316368937492371,3.5611930130028395,-7.701778406076667,6.284623553208931,0.0295848867181775,-0.1250173310964942,0.0,0.004,0.006,0.24
2025-07-30 17:08:38.032031,1753866518.032031,-0.8719726204872131,-0.5664777159690857,9.753780364990234,0.0027424725703895,-0.0154494978487491,0.0969883129000663,0.5636119842529297,-0.1027214527130127,0.5322926044464111,3.558917194401188,-7.702849379398827,6.308988198274093,0.0296544757474175,-0.1246590344503014,0.0,0.004,0.006,0.24
2025-07-30 17:08:38.048840,1753866518.04884,-0.8755183815956116,-0.5556367039680481,9.748129844665527,-0.0002539863344281,-0.0111477663740515,0.0971823707222938,0.562736988067627,-0.1030852943658828,0.5325812101364136,3.55482408820084,-7.704775546775329,6.352808509661429,0.0297796330366899,-0.1240146306199473,0.0,0.004,0.006,0.24
2025-07-30 17:08:38.056258,1753866518.056258,-0.8756584525108337,-0.5654188990592957,9.749759674072266,-0.0038832095451653,-0.0113167194649577,0.0958714485168457,0.5633049607276917,-0.103003054857254,0.5319516658782959,3.553017773298973,-7.705625577208297,6.37214670358776,0.0298348657781885,-0.1237302509374729,0.0,0.004,0.006,0.24
2025-07-30 17:08:38.062876,1753866518.062876,-0.8711604475975037,-0.5516476631164551,9.751233100891112,-0.0110056847333908,-0.0086361924186348,0.0992015972733497,0.5626494884490967,-0.1026239693164825,0.5310644507408142,3.551406238279977,-7.706383946531678,6.389399607100984,0.0298841426219039,-0.1234765366949979,0.0,0.004,0.006,0.24
2025-07-30 17:08:38.072125,1753866518.072125,-0.8682591915130615,-0.5774490237236023,9.746313095092772,-0.0122808590531349,-0.0078059546649456,0.097629077732563,0.563270628452301,-0.1017887517809867,0.5320917367935181,3.5491540487132966,-7.707443800309395,6.413511282509461,0.0299530091323965,-0.1231219601185755,0.0,0.004,0.006,0.24
2025-07-30 17:08:38.088651,1753866518.088651,-0.8754519820213318,-0.5747489929199219,9.75074577331543,-0.01120375841856,-0.0077533875592052,0.0997364893555641,0.5638859868049622,-0.1018011569976806,0.532393217086792,3.545129855693565,-7.709337537958004,6.456593817527107,0.030076059223258,-0.1224884057300334,0.007,0.014,0.01,0.24
2025-07-30 17:08:38.092801,1753866518.092801,-0.8684933185577393,-0.5786882042884827,9.744291305541992,-0.0145242288708686,-0.0052020982839167,0.0982959121465683,0.5632678866386414,-0.1006375402212143,0.5328525304794312,3.5441192645099187,-7.709813110218688,6.46741308733958,0.0301069606577473,-0.1223293019106386,0.007,0.014,0.01,0.24
2025-07-30 17:08:38.102275,1753866518.102275,-0.8663222193717957,-0.5761786699295044,9.753466606140137,-0.0184003822505474,-0.0026575832162052,0.099725566804409,0.5632593035697937,-0.1003339737653732,0.5328875780105591,3.541812327572285,-7.710898727461783,6.492110881633181,0.0301775012104483,-0.1219661061062223,0.007,0.014,0.01,0.24
2025-07-30 17:08:38.111771,1753866518.111771,-0.8743382096290588,-0.5777497291564941,9.744667053222656,-0.0200657602399587,-0.0036677794996649,0.0978413820266723,0.5632936358451843,-0.1015482768416404,0.5327474474906921,3.539499933314536,-7.711986912855194,6.516867101351167,0.0302482086348011,-0.1216020511210729,0.007,0.014,0.01,0.24
2025-07-30 17:08:38.121720,1753866518.12172,-0.8553595542907715,-0.5797588229179382,9.746341705322266,-0.0225723683834075,-0.0009069156949408,0.0986041948199272,0.5633007884025574,-0.1012762486934661,0.5330928564071655,3.53707728957912,-7.71312698034908,6.542803638951256,0.0303222872215653,-0.1212206388570683,0.007,0.014,0.01,0.24
2025-07-30 17:08:38.139365,1753866518.139365,-0.8505541682243347,-0.5791997313499451,9.737539291381836,-0.0255495365709066,-0.0002276935265399,0.0972905233502388,0.5629494786262512,-0.0994643568992614,0.5333074331283569,3.5327806369497567,-7.71514893426812,6.588803094358951,0.0304536684684019,-0.1205441894134092,0.007,0.014,0.01,0.24
2025-07-30 17:08:38.142485,1753866518.142485,-0.8500756621360779,-0.5785974264144897,9.739585876464844,-0.0261587500572204,0.0025257810484617,0.0974011346697807,0.5623828768730164,-0.1001222133636474,0.5335565805435181,3.5320209083216643,-7.715506453576636,6.596936659290662,0.0304768991326017,-0.1204245804870807,0.007,0.014,0.01,0.24
2025-07-30 17:08:38.153064,1753866518.153064,-0.8418114185333252,-0.5817128419876099,9.74597454071045,-0.0278153307735919,0.0018447642214596,0.0966038182377815,0.5632880330085754,-0.099245861172676,0.5342690348625183,3.5294448210004274,-7.716718729807525,6.624515945791444,0.0305556696531486,-0.1200190106201198,0.007,0.014,0.01,0.24
2025-07-30 17:08:38.162429,1753866518.162429,-0.836689293384552,-0.5667226910591125,9.740333557128906,-0.0323295071721077,0.0047170449979603,0.0941597148776054,0.5632306933403015,-0.0982720330357551,0.5337533950805664,3.5271643578710177,-7.717791888789526,6.648930314622035,0.0306254007008156,-0.1196599827562818,0.007,0.014,0.01,0.24
2025-07-30 17:08:38.176127,1753866518.176127,-0.8430808782577515,-0.5708177089691162,9.742680549621582,-0.0317973755300045,0.0033081881701946,0.098428688943386,0.5632293224334717,-0.0976964309811592,0.534133791923523,3.523828832204674,-7.719361547725189,6.684640058319204,0.0307273930094107,-0.1191348496640952,0.007,0.014,0.01,0.24
2025-07-30 17:08:38.182514,1753866518.182514,-0.8314459323883057,-0.5700710415840149,9.739303588867188,-0.0341297537088394,0.0053667766042053,0.0935020074248313,0.5613904595375061,-0.0973871946334838,0.5335747003555298,3.5222735540281525,-7.720093443243743,6.701290682723538,0.0307749496549288,-0.1188899922953488,0.007,0.014,0.01,0.24
2025-07-30 17:08:38.195015,1753866518.195015,-0.824811577796936,-0.5678923726081848,9.724064826965332,-0.0368141457438468,0.0066842231899499,0.09336968511343,0.5616801977157593,-0.0964984372258186,0.5339856743812561,3.5192294724786524,-7.721525952024375,6.733880260139387,0.0308680303072283,-0.1184107431104043,0.007,0.014,0.01,0.24
2025-07-30 17:08:38.202331,1753866518.202331,-0.8353164196014404,-0.5619246959686279,9.728527069091797,-0.0361978188157081,0.003157906467095,0.0938771143555641,0.562044620513916,-0.0971906632184982,0.5348422527313232,3.517447947743696,-7.722364316497942,6.752953053467692,0.0309225050253727,-0.1181302663021116,0.007,0.014,0.01,0.24
2025-07-30 17:08:38.212690,1753866518.21269,-0.8307463526725769,-0.5581299066543579,9.71803855895996,-0.0368043333292007,0.005707433912903,0.0926762670278549,0.5621176958084106,-0.0981960445642471,0.5356682538986206,3.514925446661473,-7.723551375678414,6.779958652024732,0.0309996370083178,-0.1177331328587333,0.007,0.014,0.01,0.24
2025-07-30 17:08:38.226035,1753866518.226035,-0.8379815816879272,-0.5657143592834473,9.717670440673828,-0.0355459079146385,0.0075140488334,0.091946892440319,0.5618007183074951,-0.0975984632968902,0.5357427000999451,3.5116758447586607,-7.725080599907018,6.81474850606125,0.031099001976013,-0.1172215272929846,0.007,0.014,0.01,0.24
2025-07-30 17:08:38.232497,1753866518.232497,-0.8262181878089905,-0.554551362991333,9.731271743774414,-0.0410958714783191,0.004750479478389,0.0882797092199325,0.5605370998382568,-0.0969349518418312,0.5348993539810181,3.510102336810687,-7.725821074140447,6.831594296244944,0.0311471160438572,-0.1169737998949805,0.007,0.014,0.01,0.24
2025-07-30 17:08:38.242984,1753866518.242984,-0.823685348033905,-0.5566941499710083,9.721096992492676,-0.0391041003167629,0.0084609184414148,0.0918169915676117,0.5614278316497803,-0.096602663397789,0.5349211096763611,3.5075486593358853,-7.727022804562603,6.858933665577496,0.0312252013254937,-0.1165717581531581,0.007,0.014,0.01,0.24
2025-07-30 17:08:38.252617,1753866518.252617,-0.8267276287078857,-0.5524689555168152,9.725885391235352,-0.0412582084536552,0.0078733665868639,0.0916041582822799,0.5608340501785278,-0.0957741737365722,0.5356557369232178,3.5052029986480657,-7.728126644744623,6.884046031765436,0.03129692595683,-0.1162024658216243,0.007,0.014,0.01,0.24
2025-07-30 17:08:38.264217,1753866518.264217,-0.8222059607505798,-0.5449506640434265,9.71338939666748,-0.0384647510945797,0.0081196893006563,0.0875308811664581,0.5602015256881714,-0.0951546132564544,0.5354242920875549,3.5023783129785566,-7.729455908418511,6.91428678281136,0.0313832980136831,-0.1157577575301992,0.007,0.014,0.01,0.24
2025-07-30 17:08:38.272474,1753866518.272474,-0.8143414855003357,-0.5355337262153625,9.7212495803833,-0.0427553579211235,0.0090131871402263,0.0895621106028556,0.5604855418205261,-0.09511349350214,0.5351095199584961,3.500367638855317,-7.730402107884488,6.93581282241702,0.0314447795659706,-0.115441204271332,0.007,0.014,0.01,0.24
2025-07-30 17:08:38.281908,1753866518.281908,-0.8112331032752991,-0.5379507541656494,9.722244262695312,-0.0436809547245502,0.0093666110187768,0.0889499932527542,0.5596104860305786,-0.0954773351550102,0.5353981256484985,3.4980703973693794,-7.731483162562666,6.9604068183502505,0.0315150236552052,-0.1150795348837503,0.007,0.014,0.01,0.24
2025-07-30 17:08:38.292306,1753866518.292306,-0.8141435384750366,-0.5407886505126953,9.718826293945312,-0.0418328084051609,0.0091686323285102,0.0900933369994163,0.5593066215515137,-0.0937601029872894,0.5365437269210815,3.495538433061848,-7.732674675025065,6.987513729079367,0.0315924450006954,-0.1146809115844197,0.013,0.028,0.015,0.24
2025-07-30 17:08:38.308299,1753866518.308299,-0.8055788278579712,-0.5183142423629761,9.709148406982422,-0.0427556782960891,0.0100143635645508,0.0878753736615181,0.5598100423812866,-0.0929760560393333,0.5350531339645386,3.491643996536369,-7.734507350801862,7.029207106400051,0.031711527451752,-0.1140677855888428,0.013,0.028,0.015,0.24
2025-07-30 17:08:38.313193,1753866518.313193,-0.7996705174446106,-0.5322371125221252,9.713456153869627,-0.043392214924097,0.0109434453770518,0.0880660563707351,0.5610493421554565,-0.0933044403791427,0.5356211066246033,3.490452268770142,-7.73506816379635,7.041965603064654,0.0317479676048951,-0.1138801642812816,0.013,0.028,0.015,0.24
2025-07-30 17:08:38.322164,1753866518.322164,-0.8006481528282166,-0.5185368061065674,9.717280387878418,-0.048175323754549,0.0102544836699962,0.0888862162828445,0.5611440539360046,-0.0934937372803688,0.537483274936676,3.4882677731955414,-7.736096161581884,7.065352554591868,0.0318147641968138,-0.1135362452020394,0.013,0.028,0.015,0.24
2025-07-30 17:08:38.333959,1753866518.333959,-0.7983752489089966,-0.5207709670066833,9.703695297241213,-0.0440138652920722,0.0084856962785124,0.0883847773075103,0.5608428716659546,-0.0929277092218399,0.5378681421279907,3.485395597229702,-7.737447773627645,7.096101731139399,0.0319025883920833,-0.1130840602101912,0.013,0.028,0.015,0.24
2025-07-30 17:08:38.342297,1753866518.342297,-0.7955617308616638,-0.5179711580276489,9.708117485046388,-0.0454723387956619,0.0092957569286227,0.0895866975188255,0.5587213039398193,-0.0932351946830749,0.5372433662414551,3.483365241920086,-7.738403234827201,7.117838475201083,0.0319646717474552,-0.1127644084165521,0.013,0.028,0.015,0.24
2025-07-30 17:08:38.357026,1753866518.357026,-0.8050605654716492,-0.5122890472412109,9.70749568939209,-0.0414699278771877,0.0118875103071331,0.0887681543827056,0.5578278303146362,-0.0924162790179252,0.5379824638366699,3.4797786214717994,-7.740091055998026,7.156236409967292,0.0320743419272611,-0.1121997438704169,0.013,0.028,0.015,0.24
2025-07-30 17:08:38.364670,1753866518.36467,-0.7901238203048706,-0.5096802711486816,9.704110145568848,-0.0471199601888656,0.0118458746001124,0.0883471891283989,0.5590111613273621,-0.0923464447259903,0.5376543402671814,3.4779172689159945,-7.740966986500113,7.176163830514071,0.0321312575871198,-0.1119066992588458,0.013,0.028,0.015,0.24
2025-07-30 17:08:38.372332,1753866518.372332,-0.7853775024414062,-0.5123816728591919,9.691890716552734,-0.0462853349745273,0.0107114724814891,0.0871620401740074,0.558118999004364,-0.0921031311154365,0.5380130410194397,3.476051504058819,-7.741844993379047,7.196138488638027,0.0321883081644843,-0.1116129599905117,0.013,0.028,0.015,0.24
2025-07-30 17:08:38.382245,1753866518.382245,-0.7921015620231628,-0.4965217411518097,9.698443412780762,-0.0466610081493854,0.0122589766979217,0.087178885936737,0.5569329261779785,-0.0910217612981796,0.5391018986701965,3.473637626869547,-7.742980935439985,7.221981172630848,0.0322621186914675,-0.1112329278998127,0.013,0.028,0.015,0.24
2025-07-30 17:08:38.394685,1753866518.394685,-0.7896724939346313,-0.5003227591514587,9.699097633361816,-0.0471949391067028,0.0121573833748698,0.0887563079595565,0.5575324296951294,-0.0910026133060455,0.539093017578125,3.470608407808874,-7.744406450109125,7.254411633997307,0.0323547448848005,-0.110756018611333,0.013,0.028,0.015,0.24
2025-07-30 17:08:38.402599,1753866518.402599,-0.7827770709991455,-0.4945290684700012,9.69064235687256,-0.0444112978875637,0.0126626640558242,0.0877372324466705,0.5563405156135559,-0.0907688811421394,0.5394561290740967,3.46868127712869,-7.745313335018711,7.275043267372112,0.032413671880632,-0.1104526181298605,0.013,0.028,0.015,0.24
2025-07-30 17:08:38.415322,1753866518.415322,-0.8000552654266357,-0.491838663816452,9.697820663452148,-0.0490741580724716,0.0116117587313056,0.0876595079898834,0.5563462972640991,-0.0899212509393692,0.5401819348335266,3.457897619791527,-7.745148249357178,7.315371932194992,0.032365815257822,-0.1098320272840641,0.013,0.028,0.015,0.24
2025-07-30 17:08:38.423346,1753866518.423346,-0.8113114237785339,-0.4598411321640014,9.710229873657228,-0.0494840964674949,0.0119605520740151,0.0853290930390358,0.5566775798797607,-0.0899747759103775,0.5407981872558594,3.4374391931055803,-7.742159939990011,7.353530345842429,0.0320822449287431,-0.1092045916666115,0.013,0.028,0.015,0.24
2025-07-30 17:08:38.432413,1753866518.432413,-0.797073245048523,-0.4728833734989166,9.688801765441896,-0.0484212636947631,0.013198647648096,0.0855788961052894,0.5569846034049988,-0.0896931812167167,0.5411391258239746,3.4143212621334644,-7.73878316372398,7.396649183192366,0.031761811720754,-0.1084955922153643,0.013,0.028,0.015,0.24
2025-07-30 17:08:38.468217,1753866518.468217,-0.7737554311752319,-0.4990757405757904,9.676734924316406,-0.0513397231698036,0.0116611821576952,0.0831628814339637,0.5575440526008606,-0.0893073603510856,0.5405446290969849,3.323033701524877,-7.725449026321334,7.566915868506953,0.0304964923489386,-0.1056959112899715,0.013,0.028,0.015,0.24
2025-07-30 17:08:38.475105,1753866518.475105,-0.7935898303985596,-0.4614854156970978,9.678370475769045,-0.0492988154292106,0.0125706754624843,0.0829507783055305,0.5551357269287109,-0.0885047614574432,0.5409954190254211,3.3054712470490584,-7.722883724109871,7.599672805921529,0.0302530625353174,-0.1051572916963354,0.013,0.028,0.015,0.24
2025-07-30 17:08:38.482038,1753866518.482038,-0.7915880680084229,-0.4531995952129364,9.681119918823242,-0.0497162155807018,0.0107320323586463,0.0834425389766693,0.5545461773872375,-0.0894030854105949,0.5405888557434082,3.2877945098747707,-7.720301728920811,7.632642899828937,0.0300080486711282,-0.1046151671882413,0.013,0.028,0.015,0.24
2025-07-30 17:08:38.492311,1753866518.492311,-0.7775707840919495,-0.4394856691360473,9.67745876312256,-0.0507992058992385,0.0111939283087849,0.0825797468423843,0.5542923212051392,-0.0889317020773887,0.5419047474861145,3.261601888004497,-7.716475840523472,7.681496553884529,0.0296449977622186,-0.1038118706235467,0.013,0.028,0.015,0.24
2025-07-30 17:08:38.503087,1753866518.503087,-0.7782338857650757,-0.4500868320465088,9.66792106628418,-0.0508138500154018,0.0133927520364522,0.0827668607234954,0.5543211102485657,-0.0878435969352722,0.5432862639427185,3.234126625209922,-7.712462600090337,7.732742549428622,0.0292641684134231,-0.1029692369870105,0.018,0.043,0.017,0.24
2025-07-30 17:08:38.515943,1753866518.515943,-0.7796310186386108,-0.4462662935256958,9.673699378967283,-0.0517821572721004,0.0115670980885624,0.0824730992317199,0.5552033185958862,-0.0872077196836471,0.5433430075645447,3.2013481588970523,-7.707674734462754,7.793879913288293,0.0288098323776306,-0.1019639604050976,0.018,0.043,0.017,0.24
2025-07-30 17:08:38.523870,1753866518.52387,-0.7869783043861389,-0.4297696053981781,9.672139167785645,-0.0500208064913749,0.014690957032144,0.0782902613282203,0.554831862449646,-0.0867875218391418,0.5421410202980042,3.181137142095556,-7.704722563616236,7.831576865805005,0.0285296913495154,-0.1013441125545831,0.018,0.043,0.017,0.24
2025-07-30 17:08:38.532612,1753866518.532612,-0.7859424948692322,-0.4282815456390381,9.669415473937988,-0.0507919788360595,0.0087544368579983,0.0792575627565383,0.554237961769104,-0.0859590321779251,0.5428756475448608,3.158847760687337,-7.701466811437783,7.873150318582006,0.0282207425081445,-0.1006605237331558,0.018,0.043,0.017,0.24
2025-07-30 17:08:38.546087,1753866518.546087,-0.7868619561195374,-0.430428147315979,9.674154281616213,-0.0496881678700447,0.0121709713712334,0.0789045467972755,0.5530402660369873,-0.0865729302167892,0.5425129532814026,3.124491220516892,-7.696448440651466,7.937231056140348,0.0277445330932318,-0.0996068495026644,0.018,0.043,0.017,0.24
2025-07-30 17:08:38.552421,1753866518.552421,-0.7806065082550049,-0.4302273094654083,9.672779083251951,-0.0503875128924846,0.0105542885139584,0.0811927765607833,0.5527806282043457,-0.0869491770863533,0.5431030988693237,3.1083414947178856,-7.694089492056681,7.967353016484168,0.0275206848408877,-0.0991115566175399,0.018,0.043,0.017,0.24
2025-07-30 17:08:38.565254,1753866518.565254,-0.7774222493171692,-0.4149242341518402,9.670848846435549,-0.0518987029790878,0.0106205018237233,0.0773383304476738,0.5536627769470215,-0.0863133072853088,0.5431598424911499,3.0756219934143325,-7.689310239295198,8.02838040066402,0.0270671661077819,-0.098108088422342,0.018,0.043,0.017,0.24
2025-07-30 17:08:38.572599,1753866518.572599,-0.7745665311813354,-0.4185378551483154,9.669803619384766,-0.0499506816267967,0.0111586926504969,0.0770339965820312,0.5539224743843079,-0.0859370604157447,0.5425696969032288,3.0568948280328447,-7.68657481078014,8.063309720207513,0.0268075924596484,-0.0975337485302943,0.018,0.043,0.017,0.24
2025-07-30 17:08:38.582167,1753866518.582167,-0.7719193696975708,-0.4158994555473327,9.662697792053224,-0.0538323186337947,0.010049870237708,0.0774087160825729,0.5530145168304443,-0.0856622010469436,0.5426180362701416,3.032499727116674,-7.68301148161022,8.10881069474577,0.0264694566439815,-0.0967855797956638,0.018,0.043,0.017,0.24
2025-07-30 17:08:38.592320,1753866518.59232,-0.7817484140396118,-0.4084893465042114,9.66785717010498,-0.0484984181821346,0.0117625659331679,0.0773737430572509,0.5526889562606812,-0.0847610458731651,0.542727530002594,3.006612872253472,-7.679230255807194,8.157094041801969,0.0261106439129214,-0.0959916607414602,0.018,0.043,0.017,0.24
2025-07-30 17:08:38.603370,1753866518.60337,-0.7866681814193726,-0.3933389186859131,9.67776584625244,-0.0510116703808307,0.0098976660519838,0.0750684589147567,0.5527276992797852,-0.0845521166920661,0.5436936020851135,2.9784391476475127,-7.675114992867364,8.209642786336744,0.025720133318899,-0.0951276061117744,0.018,0.043,0.017,0.24
2025-07-30 17:08:38.612295,1753866518.612295,-0.7827180624008179,-0.3853099048137665,9.661226272583008,-0.0504822395741939,0.0101532395929098,0.0769259557127952,0.5522300601005554,-0.084488533437252,0.5459100008010864,2.9555610245636523,-7.67179988635011,8.251875884967475,0.0254162280797675,-0.0944300664720131,0.018,0.043,0.017,0.24
2025-07-30 17:08:38.622344,1753866518.622344,-0.7670270204544067,-0.3939788341522217,9.6560697555542,-0.0509191825985908,0.0127851357683539,0.0770510956645011,0.5520020127296448,-0.0849278792738914,0.5471208691596985,2.925908810319612,-7.668345259223494,8.292755636619347,0.0254396795260655,-0.0936557421717474,0.018,0.043,0.017,0.24
2025-07-30 17:08:38.632970,1753866518.63297,-0.7763465642929077,-0.3811918795108795,9.66599464416504,-0.0515121147036552,0.0129939932376146,0.0751631781458854,0.5510467290878296,-0.084558367729187,0.5462380647659302,2.894554103526031,-7.6646922834374465,8.335982513920627,0.0254644774455904,-0.0928369597631839,0.018,0.043,0.017,0.24
2025-07-30 17:08:38.642291,1753866518.642291,-0.7671980857849121,-0.3822739124298095,9.665611267089844,-0.0508488975465297,0.0092686917632818,0.0759347677230835,0.5507067441940308,-0.084201268851757,0.5456568002700806,2.867050406739138,-7.661487969040543,8.373900231798359,0.0254862296649318,-0.0921187408607452,0.018,0.043,0.017,0.24
2025-07-30 17:08:38.652998,1753866518.652998,-0.7647096514701843,-0.3925560116767883,9.666230201721191,-0.0538121424615383,0.0102450270205736,0.0759438052773475,0.551012396812439,-0.0833440721035003,0.5463781356811523,2.835457210286758,-7.657807208049723,8.417455900667903,0.0255112162019872,-0.0912937306427962,0.018,0.043,0.017,0.24
2025-07-30 17:08:38.662214,1753866518.662214,-0.7601824402809143,-0.3854846060276031,9.661517143249512,-0.0515947230160236,0.0114210080355405,0.0722658187150955,0.5498060584068298,-0.0836543813347816,0.546050488948822,2.808263057599781,-7.654638957045445,8.454946868427584,0.0255327236080146,-0.0905835950327753,0.018,0.043,0.017,0.24
2025-07-30 17:08:38.675856,1753866518.675856,-0.7621815204620361,-0.3732925951480865,9.657540321350098,-0.0522494800388813,0.0099449781700968,0.074222981929779,0.5504773259162903,-0.0840650126338005,0.5472480654716492,2.768008957933603,-7.649949158721456,8.510442811623562,0.0255645599103165,-0.0895324179672007,0.018,0.043,0.017,0.24
2025-07-30 17:08:38.682480,1753866518.68248,-0.7589118480682373,-0.3719131350517273,9.664663314819336,-0.0530532747507095,0.0116135748103261,0.0731222406029701,0.5513594150543213,-0.083429142832756,0.5473048090934753,2.748463358551834,-7.647672001364015,8.537389171920225,0.0255800182019129,-0.0890220131643754,0.018,0.043,0.017,0.24
2025-07-30 17:08:38.695548,1753866518.695548,-0.756303608417511,-0.3779078722000122,9.66291618347168,-0.0512786917388439,0.0099689662456512,0.0683911219239234,0.5501331686973572,-0.0819811001420021,0.5478079915046692,2.7099033093233804,-7.643179568152387,8.59054962810636,0.0256105147077147,-0.088015073753669,0.021,0.055,0.015,0.24
2025-07-30 17:08:38.702091,1753866518.702091,-0.7639029026031494,-0.3722008466720581,9.652132987976074,-0.0525561496615409,0.0112875523045659,0.0688828602433204,0.5491792559623718,-0.0821871981024742,0.5465447902679443,2.6905969031097285,-7.640930277961973,8.617166226948143,0.0256257838253867,-0.0875109151313483,0.021,0.055,0.015,0.24
2025-07-30 17:08:38.712738,1753866518.712738,-0.7643343210220337,-0.3739352226257324,9.654485702514648,-0.0510327517986297,0.007931625470519,0.0698255822062492,0.5497486591339111,-0.0826805531978607,0.5455348491668701,2.6591802874961648,-7.6372700894974015,8.660478454273033,0.0256506307075744,-0.0866905160643013,0.021,0.055,0.015,0.24
2025-07-30 17:08:38.726773,1753866518.726773,-0.7683517336845398,-0.3709403276443481,9.66095733642578,-0.0502458475530147,0.0117034260183572,0.0691106468439102,0.5498591661453247,-0.0829014033079147,0.5477073192596436,2.6177668044739355,-7.632445217375583,8.71757277063854,0.0256833839470159,-0.0856090633943983,0.021,0.055,0.015,0.24
2025-07-30 17:08:38.734005,1753866518.734005,-0.7499653100967407,-0.3725447356700897,9.653468132019045,-0.0556657202541828,0.0106218475848436,0.068012036383152,0.5501561164855957,-0.0817406326532363,0.5484636425971985,2.596427256331287,-7.629959056265435,8.746992341846791,0.0257002610430457,-0.0850518122377881,0.021,0.055,0.015,0.24
2025-07-30 17:08:38.741977,1753866518.741977,-0.7529670596122742,-0.3678173720836639,9.662646293640137,-0.0523018389940261,0.0110339010134339,0.067229114472866,0.5492481589317322,-0.0814657658338546,0.5485119819641113,2.572904015265592,-7.627218484312776,8.779422441160719,0.0257188651857268,-0.0844375371273944,0.021,0.055,0.015,0.24
2025-07-30 17:08:38.751988,1753866518.751988,-0.7535818815231323,-0.3590085208415985,9.668458938598633,-0.0516654662787914,0.0119814677163958,0.064769223332405,0.5495637655258179,-0.0814877450466156,0.5488178730010986,2.5433643625124307,-7.623776971147115,8.820147010951459,0.0257422276090015,-0.0836661522061897,0.021,0.055,0.015,0.24
2025-07-30 17:08:38.763515,1753866518.763515,-0.7644050121307373,-0.3498742580413818,9.679705619812012,-0.0531030893325805,0.0090188300237059,0.0663356110453605,0.5486084818840027,-0.0811182335019111,0.5479351878166199,2.509351094006158,-7.619814259995779,8.86703908983506,0.0257691281410572,-0.082777945338429,0.021,0.055,0.015,0.24
2025-07-30 17:08:38.776376,1753866518.776376,-0.763921856880188,-0.340948224067688,9.684849739074709,-0.0548119358718395,0.0088221672922372,0.0673178508877754,0.5480304956436157,-0.0803212970495224,0.5489801168441772,2.4714016908657213,-7.615392970022328,8.919357684424625,0.0257991416969577,-0.0817869520591285,0.021,0.055,0.015,0.24
2025-07-30 17:08:38.783432,1753866518.783432,-0.7597721815109253,-0.3407188355922699,9.678747177124023,-0.0521187558770179,0.0106903789564967,0.0626612082123756,0.5474682450294495,-0.0795559138059616,0.5503354668617249,2.4505813325997514,-7.612967297057081,8.948061479298445,0.0258156081742926,-0.0812432587884373,0.021,0.055,0.015,0.24
2025-07-30 17:08:38.792752,1753866518.792752,-0.7585095167160034,-0.3371895849704742,9.68115520477295,-0.053835492581129,0.0138956001028418,0.0626494139432907,0.5459923148155212,-0.0793633013963699,0.5510133504867554,2.4230804498501297,-7.6097633105092015,8.98597531762968,0.0258373581680584,-0.0805251133704751,0.021,0.055,0.015,0.24
2025-07-30 17:08:38.809900,1753866518.8099,-0.7621373534202576,-0.3416574895381927,9.68789291381836,-0.0539292469620704,0.0116360047832131,0.0625557377934455,0.5460036993026733,-0.0808180794119834,0.5502175092697144,2.3724812456628808,-7.603868257211266,9.055733443749103,0.0258773762425924,-0.0792037889980746,0.021,0.055,0.015,0.24
2025-07-30 17:08:38.817286,1753866518.817286,-0.7447107434272766,-0.3424617052078247,9.701736450195312,-0.0497379638254642,0.0113671217113733,0.0617233924567699,0.5478583574295044,-0.0811588764190673,0.5510870218276978,2.349625082440276,-7.601784344867319,9.082896664289793,0.0259069730889346,-0.0782265545906638,0.021,0.055,0.015,0.24
2025-07-30 17:08:38.826647,1753866518.826647,-0.7628471255302429,-0.3346270024776459,9.712652206420898,-0.0537535473704338,0.0108712529763579,0.0610112212598323,0.5472086071968079,-0.0799321606755256,0.550925612449646,2.320125945613022,-7.599370779182222,9.115882063078216,0.0259506645280504,-0.0767839421520773,0.021,0.055,0.015,0.24
2025-07-30 17:08:38.834183,1753866518.834183,-0.7535746097564697,-0.3281890749931335,9.718106269836426,-0.0534280501306057,0.013161183334887,0.0565841346979141,0.5462045669555664,-0.0788924023509025,0.5494921207427979,2.2963781750189303,-7.5974277798145105,9.1424363886495,0.0259858375664727,-0.0756225919251756,0.021,0.055,0.015,0.24
2025-07-30 17:08:38.842642,1753866518.842642,-0.7677342891693115,-0.3256455957889557,9.723240852355955,-0.0538448952138423,0.013371504843235,0.0593093112111091,0.5459206104278564,-0.0789335221052169,0.5498068928718567,2.2697212875006314,-7.595246761794816,9.17224363590553,0.0260253193243575,-0.0743189755606327,0.021,0.055,0.015,0.24
2025-07-30 17:08:38.858727,1753866518.858727,-0.7690029144287109,-0.3342267870903015,9.726560592651367,-0.0551246292889118,0.0092158839106559,0.0567965768277645,0.5459737777709961,-0.07818054407835,0.551463782787323,2.219033381175321,-7.591099569554157,9.2289219317378,0.0261003936421618,-0.0718401571267576,0.021,0.055,0.015,0.24
2025-07-30 17:08:38.865317,1753866518.865317,-0.7649165391921997,-0.3527843058109283,9.70338249206543,-0.0533971562981605,0.0059169405139982,0.0561159439384937,0.5460224747657776,-0.0788507983088493,0.5520144701004028,2.198266103049806,-7.589400428655556,9.252143524787511,0.0261311522461554,-0.0708245635548204,0.021,0.055,0.015,0.24
2025-07-30 17:08:38.871379,1753866518.871379,-0.7672471404075623,-0.3531703650951385,9.701355934143066,-0.0518281906843185,0.0067323828116059,0.0580272562801837,0.5463380217552185,-0.0788727700710296,0.5523204207420349,2.1791637534119044,-7.5878375091755474,9.273503425054855,0.0261594449094649,-0.0698903908922358,0.021,0.055,0.015,0.24
2025-07-30 17:08:38.882376,1753866518.882376,-0.7709801197052002,-0.3346168100833893,9.69504451751709,-0.0507063679397106,0.0078522115945816,0.0580838024616241,0.5457700490951538,-0.0789550170302391,0.5529499650001526,2.1445090483165963,-7.585002124278187,9.312253686601778,0.0262107723075043,-0.0681956528760423,0.021,0.055,0.015,0.24
2025-07-30 17:08:38.892757,1753866518.892757,-0.7651644349098206,-0.3443965315818786,9.690232276916504,-0.0535472445189952,0.0058038644492626,0.0597484447062015,0.54521644115448,-0.0784932076930999,0.554270327091217,2.111795758028145,-7.582325582406836,9.34883309338798,0.0262592242584643,-0.0665958569310433,0.021,0.055,0.015,0.24
2025-07-30 17:08:38.901661,1753866518.901661,-0.7512908577919006,-0.3659573495388031,9.712076187133787,-0.0484627038240432,0.0080358935520052,0.057461392134428,0.5445379614830017,-0.0783546045422554,0.5527273416519165,2.083736904554121,-7.580029858084304,9.3802079935014,0.0263007824808421,-0.0652236794578128,0.023,0.064,0.008,0.24
2025-07-30 17:08:38.912085,1753866518.912085,-0.7639557719230652,-0.3598520159721374,9.718215942382812,-0.0448952838778495,0.0054896464571356,0.0568518079817295,0.5448377132415771,-0.0783450305461883,0.5527229309082031,2.050887625070608,-7.577342189824523,9.416939460934572,0.0263494358466324,-0.0636172331587557,0.023,0.064,0.008,0.24
2025-07-30 17:08:38.921779,1753866518.921779,-0.7736994028091431,-0.3406659662723541,9.734281539916992,-0.0434481650590896,0.0067710080184042,0.060580488294363,0.5442295670509338,-0.0780605971813201,0.5527667999267578,2.0203396434018788,-7.574842809563454,9.451097658966802,0.0263946807393561,-0.0621233284866601,0.023,0.064,0.008,0.24
2025-07-30 17:08:38.932543,1753866518.932543,-0.7656915783882141,-0.3413642048835754,9.718334197998049,-0.049188669770956,-0.0001972862228285,0.0619783662259578,0.5439298152923584,-0.0780701711773872,0.5527712106704712,1.9864189794313,-7.572067482574923,9.489027129065889,0.0264449209424277,-0.0604644876854655,0.023,0.064,0.008,0.24
2025-07-30 17:08:38.941889,1753866518.941889,-0.7686617970466614,-0.3483180999755859,9.71387767791748,-0.0468845143914222,-0.0017175901448354,0.0614506117999553,0.5433933138847351,-0.078215517103672,0.5540215373039246,1.956967175859786,-7.569657789610662,9.521959600667811,0.0264885422758292,-0.0590241900109987,0.023,0.064,0.008,0.24
2025-07-30 17:08:38.952251,1753866518.952251,-0.7634764313697815,-0.3438060283660888,9.709860801696776,-0.0476269572973251,0.0041062040254473,0.0628021731972694,0.5440375208854675,-0.0771398171782493,0.5557045340538025,1.9243139912929093,-7.566986165480055,9.558471798328313,0.0265369052036598,-0.0574273334490088,0.023,0.064,0.008,0.24
2025-07-30 17:08:38.962492,1753866518.962492,-0.7838446497917175,-0.3371235728263855,9.699420928955078,-0.0465365312993526,0.0014743362553417,0.0624365583062171,0.5437448620796204,-0.0768773630261421,0.5560542941093445,1.8920417267365115,-7.564345707531412,9.59455805815459,0.0265847039474079,-0.0558491052268392,0.023,0.064,0.008,0.24
2025-07-30 17:08:38.972631,1753866518.972631,-0.8061228394508362,-0.3215671181678772,9.716483116149902,-0.0458405241370201,-0.0042808526195585,0.0631641149520874,0.5434292554855347,-0.0768553838133812,0.5557484030723572,1.8600910277905367,-7.561731559495745,9.63028474915825,0.0266320264174138,-0.0542866027037684,0.023,0.064,0.008,0.24
2025-07-30 17:08:38.982690,1753866518.98269,-0.7964658737182617,-0.3488436639308929,9.73592758178711,-0.0419871024787426,-0.0031553893350064,0.0631971210241317,0.541607677936554,-0.0771532952785492,0.5551192164421082,1.828392021553656,-7.55913800449944,9.665730001947978,0.0266789761030654,-0.0527364088470483,0.023,0.064,0.008,0.24
2025-07-30 17:08:38.992744,1753866518.992744,-0.7834190726280212,-0.3198916316032409,9.756064414978027,-0.0400843061506748,-0.0038308140356093,0.0653344243764877,0.5410152077674866,-0.0769004076719284,0.5554734468460083,1.796709544390208,-7.556545801881839,9.701156772228146,0.0267259013073563,-0.0511870233206556,0.023,0.064,0.008,0.24
2025-07-30 17:08:39.001981,1753866519.001981,-0.7473331689834595,-0.343361496925354,9.731819152832031,-0.0418602228164672,-0.0006143866921775,0.0679221823811531,0.5400900840759277,-0.0760184004902839,0.5555917620658875,1.7676010947531888,-7.554164201511575,9.73370531169941,0.0267690140961311,-0.0497635168716284,0.023,0.064,0.008,0.24
2025-07-30 17:08:39.012073,1753866519.012073,-0.7708865404129028,-0.2901413142681122,9.738649368286133,-0.0427356585860252,-0.0010723514715209,0.069660410284996,0.5398290753364563,-0.075819045305252,0.5565623044967651,1.7358032012501476,-7.551600521772605,9.769213757169156,0.0268127693016113,-0.0482146053740581,0.023,0.064,0.008,0.24
2025-07-30 17:08:39.022604,1753866519.022604,-0.7664275169372559,-0.2744397521018982,9.745163917541504,-0.0477637462317943,-0.0040331790223717,0.066765546798706,0.54103684425354,-0.0760843306779861,0.5565095543861389,1.7032207477430708,-7.553712347687149,9.799684384761704,0.0264406016791996,-0.0473911371287418,0.023,0.064,0.008,0.24
2025-07-30 17:08:39.032769,1753866519.032769,-0.78889399766922,-0.3214414119720459,9.756723403930664,-0.0440630838274955,-0.0068535562604665,0.0671303495764732,0.5415502786636353,-0.0761794596910476,0.5546035766601562,1.6717706027289383,-7.555750783228616,9.82909609423436,0.0260813676610532,-0.0465962861294423,0.023,0.064,0.008,0.24
2025-07-30 17:08:39.042288,1753866519.042288,-0.7760697603225708,-0.3110676407814026,9.764910697937012,-0.0410240776836872,-0.0070286989212036,0.0705573856830596,0.5415904521942139,-0.0765461400151252,0.5551892518997192,1.642318779348283,-7.557659697909713,9.856639002933916,0.02574495913734,-0.0458519394424942,0.023,0.064,0.008,0.24
2025-07-30 17:08:39.052614,1753866519.052614,-0.7990249395370483,-0.2932440340518951,9.779947280883787,-0.0376464314758777,-0.0066256802529096,0.0719464197754859,0.5413293838500977,-0.0763467848300933,0.5561597943305969,1.6103707136613574,-7.559730406090806,9.886516360439757,0.0253800377036371,-0.0450445043122102,0.023,0.064,0.008,0.24
2025-07-30 17:08:39.062493,1753866519.062493,-0.777675211429596,-0.2872948944568634,9.789095878601074,-0.0369378849864006,-0.0086441105231642,0.0745135173201561,0.5410210490226746,-0.0760527849197387,0.5561991930007935,1.5798050232941572,-7.561711515862032,9.915100941035718,0.0250309062206791,-0.0442720064581707,0.023,0.064,0.008,0.24
2025-07-30 17:08:39.072335,1753866519.072335,-0.7674481868743896,-0.3074925541877746,9.772696495056152,-0.0386841408908367,-0.0064034298993647,0.0772262066602706,0.5413438081741333,-0.0758027359843254,0.5568505525588989,1.5493544079268913,-7.563685167067655,9.943577905197358,0.0246830891626497,-0.0435024169366254,0.023,0.064,0.008,0.24
2025-07-30 17:08:39.081559,1753866519.081559,-0.77766352891922,-0.3018818199634552,9.776460647583008,-0.0399294681847095,-0.0115174911916255,0.0791408419609069,0.5404358506202698,-0.0755278766155242,0.556898832321167,1.5208158079431515,-7.565534891337111,9.970266780911643,0.0243571117803571,-0.0427811504780609,0.023,0.064,0.008,0.24
2025-07-30 17:08:39.092400,1753866519.0924,-0.7536126375198364,-0.271224170923233,9.774944305419922,-0.0383839979767799,-0.0082592284306883,0.077417567372322,0.5401648879051208,-0.0744493454694747,0.5582847595214844,1.4872736584430315,-7.567708919776328,10.001634901972553,0.0239739821910728,-0.0419334274854692,0.023,0.064,0.008,0.24
2025-07-30 17:08:39.101769,1753866519.101769,-0.7550244927406311,-0.2826007902622223,9.788755416870115,-0.0388265773653984,-0.0058252862654626,0.0787881538271904,0.539598286151886,-0.0751071870326995,0.5585339665412903,1.45828656102365,-7.569587713327107,10.028743205841153,0.0236428819218789,-0.04120082598744,0.024,0.065,-0.002,0.24
2025-07-30 17:08:39.112222,1753866519.112222,-0.7523056268692017,-0.2839908003807068,9.797203063964844,-0.0401858538389205,-0.0082628447562456,0.0804792866110801,0.539592444896698,-0.0759548172354698,0.5578081607818604,1.4259453224202818,-7.5716839049406754,10.058988252830956,0.0232734695363367,-0.0403834540544674,0.024,0.065,-0.002,0.24
2025-07-30 17:08:39.121807,1753866519.121807,-0.7786973118782043,-0.2733008563518524,9.792569160461426,-0.036173190921545,-0.0081486143171787,0.0831742137670517,0.539876401424408,-0.0759136974811554,0.5574933886528015,1.3962891671487172,-7.573606063356849,10.086722249686346,0.0229347270657952,-0.0396339432130264,0.024,0.065,-0.002,0.24
2025-07-30 17:08:39.132494,1753866519.132494,-0.7571476101875305,-0.2585094273090362,9.80041217803955,-0.0397494621574878,-0.0119693130254745,0.0864836499094963,0.5386343598365784,-0.0744341015815734,0.5576862096786499,1.3632242838342228,-7.575749157873342,10.117644038484343,0.0225570489696443,-0.0387982823430229,0.024,0.065,-0.002,0.24
2025-07-30 17:08:39.141326,1753866519.141326,-0.7481831908226013,-0.2749078571796417,9.80130100250244,-0.0376989133656024,-0.0101123191416263,0.0874196588993072,0.5383087396621704,-0.0735329464077949,0.5577957034111023,1.3358983973113303,-7.577520280336063,10.143198802544518,0.0222449236039068,-0.0381076652345896,0.024,0.065,-0.002,0.24
2025-07-30 17:08:39.152482,1753866519.152482,-0.7333179712295532,-0.2798856496810913,9.798894882202148,-0.0379093699157238,-0.0080894650891423,0.0904919058084487,0.5395151376724243,-0.073222629725933,0.5581233501434326,1.301381798613048,-7.5797574675263135,10.175478214052546,0.0218506635317336,-0.0372353146315822,0.024,0.065,-0.002,0.24
2025-07-30 17:08:39.162200,1753866519.1622,-0.7636853456497192,-0.2677276730537414,9.80679702758789,-0.0344682112336158,-0.007551918271929,0.0901314839720726,0.5389944314956665,-0.0733995288610458,0.5596840381622314,1.2713147665788969,-7.581706256846593,10.203596456766434,0.0215072278901329,-0.0364754195516843,0.024,0.065,-0.002,0.24
2025-07-30 17:08:39.172538,1753866519.172538,-0.7623806595802307,-0.2373772412538528,9.813427925109863,-0.0356849059462547,-0.008959268219769,0.0940921455621719,0.5378283262252808,-0.0740765184164047,0.5599420666694641,1.239329080218916,-7.583779403404903,10.23350899656809,0.021141876740588,-0.0356670336203925,0.024,0.065,-0.002,0.24
2025-07-30 17:08:39.182397,1753866519.182397,-0.7509423494338989,-0.2454089224338531,9.823179244995115,-0.0376242063939571,-0.0104467384517192,0.0973450243473053,0.5374582409858704,-0.0742319151759147,0.5583596229553223,1.2088260909734747,-7.585756449214102,10.26203494000434,0.0207934614507001,-0.0348961204346992,0.024,0.065,-0.002,0.24
2025-07-30 17:08:39.192897,1753866519.192897,-0.7598630785942078,-0.2623289227485657,9.83831024169922,-0.0381863340735435,-0.0116860643029212,0.0971420183777809,0.5383546948432922,-0.0730519890785217,0.5591071844100952,1.1763387956394205,-7.587862107468628,10.29241657708387,0.0204223807565947,-0.0340750571566378,0.024,0.065,-0.002,0.24
2025-07-30 17:08:39.202386,1753866519.202386,-0.7667592167854309,-0.266090989112854,9.79764175415039,-0.0328997001051902,-0.017960226163268,0.1006415113806724,0.5377623438835144,-0.0727991089224815,0.5594614148139954,1.1469806551112758,-7.589764950112344,10.3198718749683,0.0200870423095861,-0.0333330781506305,0.024,0.065,-0.002,0.24
2025-07-30 17:08:39.228199,1753866519.228199,-0.7536983489990234,-0.2450122684240341,9.78316593170166,-0.0287923663854599,-0.0220075827091932,0.1031206846237182,0.5378814339637756,-0.0733235329389572,0.5615988373756409,1.0420404396848617,-7.622338932971283,10.471180295647017,0.0206526705095368,-0.029609186100953,0.024,0.065,-0.002,0.24
2025-07-30 17:08:39.234212,1753866519.234212,-0.7655600309371948,-0.2335323989391327,9.842877388000488,-0.0352593995630741,-0.0201742369681596,0.1082774400711059,0.537507176399231,-0.07175213098526,0.5611577033996582,1.0141350518936665,-7.633707794619453,10.517000253927565,0.0209883854990859,-0.0285063783969553,0.024,0.065,-0.002,0.24
2025-07-30 17:08:39.242492,1753866519.242492,-0.779289960861206,-0.2514870762825012,9.834312438964844,-0.0308712478727102,-0.0203238874673843,0.1110337525606155,0.5366091728210449,-0.0723564475774765,0.5607905983924866,0.9757081600379798,-7.649363194943771,10.58009626229888,0.0214506791498413,-0.026987765837394,0.024,0.065,-0.002,0.24
2025-07-30 17:08:39.252846,1753866519.252846,-0.7604212760925293,-0.2408002912998199,9.802179336547852,-0.0297171622514724,-0.0202995147556066,0.1128583252429962,0.5362204909324646,-0.0713290870189666,0.5596586465835571,0.927656011703482,-7.668939996040388,10.658996704337255,0.0220287691802195,-0.0250887677022152,0.024,0.065,-0.002,0.24
2025-07-30 17:08:39.262392,1753866519.262392,-0.7546778917312622,-0.2370088994503021,9.785593032836914,-0.0303560104221105,-0.0213520191609859,0.1173028945922851,0.5355793833732605,-0.0704059526324272,0.5594621896743774,0.8833537190083326,-7.686989078178813,10.73173997593102,0.022561746676911,-0.0233379620852301,0.024,0.065,-0.002,0.24
2025-07-30 17:08:39.272231,1753866519.272231,-0.7560718059539795,-0.2432749569416046,9.794672012329102,-0.0303082820028066,-0.0276740957051515,0.1191188097000122,0.5362650156021118,-0.0702725350856781,0.5613505244255066,0.8376915642356504,-7.705592178198506,10.80671610750602,0.0231110839564,-0.0215334153632406,0.024,0.065,-0.002,0.24
2025-07-30 17:08:39.282286,1753866519.282286,-0.761659562587738,-0.2207704186439514,9.81177043914795,-0.0278344694525003,-0.0263194851577281,0.1222139000892639,0.537481427192688,-0.0708414018154144,0.5612627863883972,0.7910280464197075,-7.724603240937929,10.883336452492728,0.0236724681060532,-0.019689295248225,0.024,0.065,-0.002,0.24
2025-07-30 17:08:39.292630,1753866519.29263,-0.767734944820404,-0.215243712067604,9.812471389770508,-0.0267558433115482,-0.0316585786640644,0.1263100206851959,0.5372217893600464,-0.0712176412343978,0.5618528723716736,0.7430223701822452,-7.744161108958051,10.962160588494328,0.0242499990551642,-0.0177921336683026,0.024,0.065,-0.002,0.24
2025-07-30 17:08:39.302112,1753866519.302112,-0.7595545649528503,-0.2280338853597641,9.815080642700195,-0.0276159606873989,-0.0324701033532619,0.1281086057424545,0.5350673198699951,-0.0708864256739616,0.5609878301620483,0.6990166137253211,-7.76208938003693,11.034416954900948,0.0247794090809119,-0.016053047022954,0.025,0.06,-0.012,0.24
2025-07-30 17:08:39.312469,1753866519.312469,-0.7702086567878723,-0.2266861796379089,9.819175720214844,-0.0245883464813232,-0.0308099538087844,0.1346042305231094,0.5350086092948914,-0.0693369954824447,0.560852587223053,0.6519655566539271,-7.782439276659316,11.11594386024052,0.0253434077417361,-0.0142269007547318,0.025,0.06,-0.012,0.24
2025-07-30 17:08:39.322825,1753866519.322825,-0.7764398455619812,-0.1961187273263931,9.79936695098877,-0.0197197943925857,-0.039154265075922,0.1344837099313736,0.5350473523139954,-0.0691280663013458,0.5618186593055725,0.6258577862403618,-7.818634139645874,11.25122957927968,0.0256131782118585,-0.0139155876119567,0.025,0.06,-0.012,0.24
2025-07-30 17:08:39.332884,1753866519.332884,-0.7670022249221802,-0.185259461402893,9.787598609924316,-0.0250883772969245,-0.034756738692522,0.1383904218673706,0.5356554985046387,-0.0694124996662139,0.5617747902870178,0.6004983392029106,-7.853791554331062,11.382637622653434,0.0258752162886827,-0.0136131975943026,0.025,0.06,-0.012,0.24
2025-07-30 17:08:39.341968,1753866519.341968,-0.7758579254150391,-0.2115557193756103,9.815881729125977,-0.0246868040412664,-0.0353491008281707,0.1419331431388855,0.5355981588363647,-0.068438671529293,0.5612591505050659,0.5775972396420107,-7.885540805520187,11.501306956411398,0.0261118523666395,-0.0133401212969254,0.025,0.06,-0.012,0.24
2025-07-30 17:08:39.352606,1753866519.352606,-0.7913856506347656,-0.2201479226350784,9.819901466369627,-0.0240979846566915,-0.0373798049986362,0.1456488072872162,0.5359439849853516,-0.0679481476545333,0.5625661611557007,0.550778411755399,-7.922721452715997,11.640277245982446,0.0263889701630847,-0.0130203293934932,0.025,0.06,-0.012,0.24
2025-07-30 17:08:39.361834,1753866519.361834,-0.8034675121307373,-0.1962213069200515,9.812625885009766,-0.0236246306449174,-0.0396366938948631,0.1460901498794555,0.5350860953330994,-0.0689191371202468,0.562784731388092,0.5275142701710671,-7.954974012157354,11.760827797492963,0.0266293575386738,-0.0127429241261778,0.025,0.06,-0.012,0.24
2025-07-30 17:08:39.372488,1753866519.372488,-0.8005549311637878,-0.2044088691473007,9.796307563781738,-0.0298933573067188,-0.0424071364104747,0.1525567770004272,0.5345122814178467,-0.0698490142822265,0.5626885294914246,0.5006551710666244,-7.992210489904322,11.900006765192202,0.0269068914558828,-0.0124226520224379,0.025,0.06,-0.012,0.24
2025-07-30 17:08:39.381527,1753866519.381527,-0.8067160844802856,-0.2113385200500488,9.783048629760742,-0.0277044419199228,-0.0465472564101219,0.1550089418888092,0.5347619652748108,-0.0685935840010643,0.5625137686729431,0.4778676724037852,-8.023802248941674,12.018087439752762,0.0271423537006401,-0.0121509303199586,0.025,0.06,-0.012,0.24
2025-07-30 17:08:39.392390,1753866519.39239,-0.8071275353431702,-0.1879546195268631,9.776437759399414,-0.0268123820424079,-0.0446675345301628,0.1574475318193435,0.5356499552726746,-0.0671100839972496,0.5632963180541992,0.4504814410898228,-8.061769523604546,12.159997910711908,0.0274253344523251,-0.0118243726092058,0.025,0.06,-0.012,0.24
2025-07-30 17:08:39.401873,1753866519.401873,-0.800736129283905,-0.1791358590126037,9.769043922424316,-0.0309633575379848,-0.0433467291295528,0.1575560122728347,0.534767746925354,-0.067745953798294,0.563239574432373,0.4265741621460996,-8.094913705280813,12.283881083075457,0.0276723673386203,-0.0115392984713045,0.025,0.06,-0.012,0.24
2025-07-30 17:08:39.412937,1753866519.412937,-0.8034449815750122,-0.188328668475151,9.76931381225586,-0.0324083864688873,-0.047516506165266,0.1637222468852996,0.5341495871543884,-0.0665823444724083,0.5636988878250122,0.3997675880265741,-8.133474003512513,12.42548245172685,0.0280205115566555,-0.01119390674462,0.025,0.06,-0.012,0.24
2025-07-30 17:08:39.422014,1753866519.422014,-0.7958938479423523,-0.1893543154001236,9.779104232788086,-0.0311567839235067,-0.0496484339237213,0.1698478758335113,0.5335801839828491,-0.0660889893770217,0.5647088289260864,0.3872857204442214,-8.164158593801488,12.515975989089256,0.028831151611097,-0.0107984179075967,0.025,0.06,-0.012,0.24
2025-07-30 17:08:39.432298,1753866519.432298,-0.8161293268203735,-0.1727578938007354,9.804285049438477,-0.0300926156342029,-0.0527649670839309,0.1683021336793899,0.5332745909690857,-0.066946193575859,0.5639874935150146,0.3731442811634585,-8.198922964402577,12.61850142091815,0.0297495732361306,-0.0103503454266091,0.025,0.06,-0.012,0.24
2025-07-30 17:08:39.441972,1753866519.441972,-0.8119932413101196,-0.1495997905731201,9.817986488342283,-0.0347910597920417,-0.0516265146434307,0.174130842089653,0.5326592326164246,-0.0669337809085846,0.5636860132217407,0.359841479655223,-8.231625683870046,12.71494672907157,0.0306135291840456,-0.0099288452414059,0.025,0.06,-0.012,0.24
2025-07-30 17:08:39.452038,1753866519.452038,-0.8068475127220154,-0.1525025069713592,9.783750534057615,-0.0362970568239688,-0.0521702244877815,0.1770973354578018,0.5323882102966309,-0.0658552497625351,0.5650719404220581,0.3459996943713678,-8.2656534050825,12.815299669485526,0.0315124896562698,-0.0094902673180207,0.025,0.06,-0.012,0.24
2025-07-30 17:08:39.462207,1753866519.462207,-0.8007514476776123,-0.1546875685453415,9.780333518981934,-0.0419962666928768,-0.0551173090934753,0.1780958473682403,0.5326334834098816,-0.066023051738739,0.563791036605835,0.3320162783143572,-8.300029301935972,12.916679432975258,0.0324206483976556,-0.0090472018137993,0.025,0.06,-0.012,0.24
2025-07-30 17:08:39.471760,1753866519.47176,-0.8107510209083557,-0.1401286125183105,9.77163791656494,-0.041277565062046,-0.0556422024965286,0.1868382841348648,0.5335084795951843,-0.0656592100858688,0.5635024309158325,0.3188800241041841,-8.33232259264039,13.01191727325255,0.0332737878623898,-0.0086309786912461,0.025,0.06,-0.012,0.24
2025-07-30 17:08:39.481677,1753866519.481677,-0.8126413226127625,-0.1372910737991333,9.77706527709961,-0.0434737727046012,-0.0591377578675746,0.1870520561933517,0.5338785648345947,-0.0655038133263588,0.5650848150253296,0.3052431444527878,-8.365846587520354,13.110784647874029,0.0341594406535354,-0.0081988932169873,0.025,0.06,-0.012,0.24
2025-07-30 17:08:39.492254,1753866519.492254,-0.810821533203125,-0.1413446515798568,9.781448364257812,-0.0449916496872901,-0.0575130097568035,0.1905381977558136,0.5323710441589355,-0.0652481019496917,0.5651419758796692,0.290698778736358,-8.401601485581653,13.216231296277243,0.0351040305026421,-0.0077380539840375,0.025,0.06,-0.012,0.24
2025-07-30 17:08:39.502246,1753866519.502246,-0.8266299962997437,-0.1178641021251678,9.804313659667969,-0.0474527329206466,-0.0566670931875705,0.1934594362974167,0.5309366583824158,-0.065997764468193,0.5660251379013062,0.2769589544952143,-8.435378552571057,13.315845019152889,0.0359963690727615,-0.0073027067033376,0.025,0.049,-0.019,0.24
2025-07-30 17:08:39.512335,1753866519.512335,-0.8219245076179504,-0.1250284612178802,9.798190116882324,-0.0499702468514442,-0.0535428971052169,0.1968377083539962,0.531249463558197,-0.0648685321211814,0.5670918822288513,0.2630853678572016,-8.469484452110313,13.416428519377844,0.0368973948970892,-0.006863121151848,0.025,0.049,-0.019,0.24
2025-07-30 17:08:39.522185,1753866519.522185,-0.82625812292099,-0.1159556433558464,9.767425537109377,-0.0538658127188682,-0.0563500262796878,0.1974827498197555,0.5305036306381226,-0.0628769174218177,0.5654487013816833,0.2495406137781587,-8.502781971631189,13.514627983619036,0.0377770645548218,-0.0064339546827164,0.025,0.049,-0.019,0.24
2025-07-30 17:08:39.531554,1753866519.531554,-0.8544999361038208,-0.1023160964250564,9.764833450317385,-0.0547642260789871,-0.0599016360938549,0.2002746164798736,0.5308020114898682,-0.062291745096445,0.5658246874809265,0.2366574590051987,-8.534453059569714,13.60803085302942,0.0386137663718877,-0.006025751033324,0.025,0.049,-0.019,0.24
2025-07-30 17:08:39.542609,1753866519.542609,-0.842308521270752,-0.1121309027075767,9.764415740966797,-0.0588208176195621,-0.058487519621849,0.2002101838588714,0.5308651328086853,-0.0624179430305957,0.5670661330223083,0.2214557560198412,-8.571823911705646,13.718243196494967,0.0396010472618946,-0.0055440840235769,0.025,0.049,-0.019,0.24
2025-07-30 17:08:39.552627,1753866519.552627,-0.8551645874977112,-0.098825491964817,9.782459259033203,-0.0566227324306964,-0.0596433021128177,0.2021401524543762,0.5309211015701294,-0.062816172838211,0.5679621696472168,0.2076798683873848,-8.60568963452957,13.81811837895006,0.040495727983884,-0.0051075940718307,0.025,0.049,-0.019,0.24
2025-07-30 17:08:39.561816,1753866519.561816,-0.8562629818916321,-0.1046966314315795,9.769217491149902,-0.0545071922242641,-0.0602133125066757,0.2033934295177459,0.5302813649177551,-0.0624686405062675,0.5673853158950806,0.195044239618435,-8.636752221058448,13.909726684883124,0.0413163541222069,-0.004707233300983,0.025,0.049,-0.019,0.24
2025-07-30 17:08:39.572738,1753866519.572738,-0.8566123247146606,-0.0842086300253868,9.771402359008787,-0.0582391880452632,-0.057271808385849,0.2071548849344253,0.5290077328681946,-0.0609259456396102,0.566957414150238,0.1800254763817367,-8.673673346324732,14.018612715209144,0.0422917539145468,-0.0042313627498159,0.025,0.049,-0.019,0.24
2025-07-30 17:08:39.582049,1753866519.582049,-0.8647902011871338,-0.0835947394371032,9.769370079040527,-0.0630752816796302,-0.0606490895152092,0.2050463855266571,0.5290966629981995,-0.0619628764688968,0.5680937767028809,0.1672219889186766,-8.705148585465185,14.111437996639438,0.0431232817052093,-0.0038256833646439,0.025,0.049,-0.019,0.24
2025-07-30 17:08:39.592085,1753866519.592085,-0.867637038230896,-0.0632872954010963,9.776625633239746,-0.063785083591938,-0.0591307990252971,0.210121214389801,0.5303345322608948,-0.0617156624794006,0.5690421462059021,0.1534215126103252,-8.739074755449009,14.211491446989612,0.0440195593489281,-0.0033884143190025,0.025,0.049,-0.019,0.24
2025-07-30 17:08:39.603387,1753866519.603387,-0.8701263666152954,-0.0633081272244453,9.77594757080078,-0.0627542585134506,-0.0586952753365039,0.2065243273973465,0.5284627079963684,-0.0607677176594734,0.5682427287101746,0.1378798301995921,-8.77728139031581,14.324168641218035,0.0450289203433807,-0.0028959750376649,0.025,0.049,-0.019,0.24
2025-07-30 17:08:39.616149,1753866519.616149,-0.8690059185028076,-0.0561480708420276,9.77599811553955,-0.0622174218297004,-0.0582847036421299,0.2092954516410827,0.5290852785110474,-0.060508094727993,0.5688896179199219,0.1156838377257138,-8.822447835928514,14.460334208253755,0.0459074604839968,-0.0023320309993135,0.025,0.049,-0.019,0.24
2025-07-30 17:08:39.622350,1753866519.62235,-0.8759440183639526,-0.0459192246198654,9.774372100830078,-0.0658120214939117,-0.0598844327032566,0.2105693072080612,0.5290609002113342,-0.0601729676127433,0.5686143040657043,0.1002286055245267,-8.846430092771044,14.535478613254398,0.0460718885218165,-0.0020500592885019,0.025,0.049,-0.019,0.24
2025-07-30 17:08:39.632094,1753866519.632094,-0.8802759647369385,-0.0552282780408859,9.7932767868042,-0.0672072246670723,-0.0632786676287651,0.2092845439910888,0.5275677442550659,-0.0593731999397277,0.5693621635437012,0.0759431702970933,-8.884114388780013,14.653556074439765,0.0463302609881801,-0.001606985665942,0.025,0.049,-0.019,0.24
2025-07-30 17:08:39.642529,1753866519.642529,-0.8923838138580322,-0.04784682020545,9.778103828430176,-0.0657432600855827,-0.0616621375083923,0.2112470865249633,0.5264331102371216,-0.060113288462162,0.5702409148216248,0.0499350729853337,-8.924471781124346,14.780009237501318,0.0466069608366669,-0.0011324830768843,0.025,0.049,-0.019,0.24
2025-07-30 17:08:39.652376,1753866519.652376,-0.8880205154418945,-0.0404930189251899,9.757163047790527,-0.0665215924382209,-0.0577507391571998,0.2139715999364853,0.5252655744552612,-0.0602146796882152,0.570879340171814,0.0253929319902463,-8.962554413668975,14.89933481983553,0.0468680643927432,-0.0006847260070919,0.025,0.049,-0.019,0.24
2025-07-30 17:08:39.662302,1753866519.662302,-0.8965146541595459,-0.0364516749978065,9.774825096130373,-0.0660433322191238,-0.055665548890829,0.2174507826566696,0.5252713561058044,-0.0593670532107353,0.5716050863265991,0.0006535078589063,-9.000943175217861,15.019619606385987,0.0471312668418396,-0.0002333696213708,0.025,0.049,-0.019,0.24
2025-07-30 17:08:39.671661,1753866519.671661,-0.9021868109703064,-0.0397595055401325,9.774465560913086,-0.0673375502228736,-0.0578777454793453,0.2173941433429718,0.526153564453125,-0.0587311834096908,0.5716618895530701,-0.0226722518713946,-9.037138319594678,15.133031059109854,0.0473794293316151,0.0001921952806322,0.025,0.049,-0.019,0.24
2025-07-30 17:08:39.681986,1753866519.681986,-0.8958541750907898,-0.0270515382289886,9.77013111114502,-0.0676645189523696,-0.057212870568037,0.2176145166158676,0.5255110263824463,-0.0572324469685554,0.5718458294868469,-0.0484064108523938,-9.077070635219243,15.25815231511207,0.0476532147533483,0.0006617000243793,0.025,0.049,-0.019,0.24
2025-07-30 17:08:39.692206,1753866519.692206,-0.9015207290649414,-0.0215823464095592,9.759666442871094,-0.0717805251479148,-0.0598080828785896,0.2176619321107864,0.5245944857597351,-0.0566540099680423,0.5719291567802429,-0.0738779218025989,-9.116595393555013,15.381996558272206,0.0479242058656994,0.0011264129077635,0.025,0.049,-0.019,0.24
2025-07-30 17:08:39.702498,1753866519.702498,-0.9083932042121888,-0.0249497648328542,9.763086318969728,-0.0720673352479934,-0.0515057556331157,0.2196417897939682,0.5230883359909058,-0.0569738931953907,0.5716058611869812,-0.0995294833259503,-9.156399540710929,15.506716219738138,0.0481971125340296,0.0015944107089983,0.022,0.033,-0.021,0.23
2025-07-30 17:08:39.711427,1753866519.711427,-0.8879351615905762,-0.0460175164043903,9.750365257263184,-0.0733636766672134,-0.0541442111134529,0.2256021648645401,0.5243033170700073,-0.056967157870531,0.5718985199928284,-0.1217838530120842,-9.190932183296551,15.61491850016715,0.0484338765174347,0.0020004287235934,0.022,0.033,-0.021,0.23
2025-07-30 17:08:39.721769,1753866519.721769,-0.9016457796096802,-0.0272961109876632,9.753565788269045,-0.0693403109908104,-0.0548102408647537,0.2272433638572693,0.5243348479270935,-0.0570302568376064,0.5725192427635193,-0.1475602020613784,-9.230929966268416,15.740244887191524,0.0487081107988197,0.0024707032005663,0.022,0.033,-0.021,0.23
2025-07-30 17:08:39.732186,1753866519.732186,-0.9046822786331176,-0.004380689933896,9.75675106048584,-0.071385346353054,-0.0554400384426116,0.2314578145742416,0.5237311124801636,-0.055322591215372,0.5736693143844604,-0.173523138173273,-9.271217280888884,15.866478473384303,0.0489843301778199,0.0029443818498331,0.022,0.033,-0.021,0.23
2025-07-30 17:08:39.741999,1753866519.741999,-0.9163191318511964,-0.0042699305340647,9.759161949157717,-0.0714989602565765,-0.0519216023385524,0.2289189547300338,0.5236895084381104,-0.0543803125619888,0.573464035987854,-0.1979803048054564,-9.309168056663609,15.985390904504882,0.0492445296926256,0.003390588611861,0.022,0.033,-0.021,0.23
2025-07-30 17:08:39.752057,1753866519.752057,-0.9240539073944092,-0.0062274076044559,9.763256072998049,-0.0753353536128997,-0.0487334877252578,0.2331665307283401,0.5227672457695007,-0.0546495094895362,0.5728215575218201,-0.2230489303147601,-9.348067647936464,16.107276290861975,0.0495112345113998,0.0038479510850053,0.022,0.033,-0.021,0.23
2025-07-30 17:08:39.762621,1753866519.762621,-0.9164858460426332,0.0064940671436488,9.744009971618652,-0.0732796341180801,-0.0507067255675792,0.2350058406591415,0.5218836069107056,-0.0547097735106945,0.5731452107429504,-0.2493779098360873,-9.388922960950373,16.23528960535957,0.0497913482220275,0.0043283079831036,0.022,0.033,-0.021,0.23
2025-07-30 17:08:39.772523,1753866519.772523,-0.9301664233207704,-0.0075157941319048,9.742242813110352,-0.0726614445447921,-0.0501614399254322,0.236340582370758,0.5228045582771301,-0.0538649782538414,0.5741680860519409,-0.2740573171097119,-9.427218592892542,16.355282585808098,0.0500539121524641,0.0047785693962079,0.022,0.033,-0.021,0.23
2025-07-30 17:08:39.782550,1753866519.78255,-0.9376108646392822,0.0271095745265483,9.759106636047363,-0.0692621022462844,-0.0456751994788646,0.2364541739225387,0.5222667455673218,-0.0534347184002399,0.575798749923706,-0.2990486931981937,-9.465998314374575,16.4767923801528,0.0503197951155377,0.0052345224986572,0.022,0.033,-0.021,0.23
2025-07-30 17:08:39.792424,1753866519.792424,-0.9220308661460876,0.0198740735650062,9.750561714172363,-0.0726765468716621,-0.0456498824059963,0.2428290545940399,0.521649956703186,-0.0528467111289501,0.5758776664733887,-0.3236579817667647,-9.504185141429687,16.596444438620864,0.0505816130538769,0.0056835046368229,0.022,0.033,-0.021,0.23
2025-07-30 17:08:39.801607,1753866519.801607,-0.937180519104004,0.0324474275112152,9.748639106750488,-0.0732572600245475,-0.0449086129665374,0.2425791025161743,0.5207276344299316,-0.0531159006059169,0.5752351880073547,-0.3465452024773234,-9.539699794224752,16.707723684382103,0.0508251099320599,0.0061010686498038,0.022,0.033,-0.021,0.23
2025-07-30 17:08:39.819258,1753866519.819258,-0.9274414777755736,0.0245570112019777,9.739441871643066,-0.0748588219285011,-0.042388267815113,0.2497970312833786,0.5199143886566162,-0.0530303418636322,0.5771455764770508,-0.3986589634798655,-9.592347850843144,16.937862128578004,0.0511883036442416,0.0064584091788916,0.022,0.033,-0.021,0.23
